timestamp,acc_x,acc_y,acc_z,gyro_x,gyro_y,gyro_z
0.0000,-0.003326,-0.010925,-1.000061,0.003306,-0.000596,-0.003450
0.0100,-0.003036,-0.009888,-0.999908,-0.001665,0.004216,-0.002421
0.0200,-0.002335,-0.010590,-0.999191,-0.000750,0.004266,-0.000513
0.0300,-0.002472,-0.009094,-0.998047,-0.003202,0.004866,-0.002457
0.0400,-0.002075,-0.008865,-0.999924,-0.004319,0.003776,-0.001982
0.0500,-0.001389,-0.009567,-1.000519,-0.003779,0.002668,-0.001789
0.0600,-0.001968,-0.010925,-0.999329,-0.003855,0.004534,-0.000246
0.0700,-0.001663,-0.010391,-0.998917,-0.003864,0.004160,-0.002093
0.0800,-0.001480,-0.010834,-0.999481,-0.002568,0.002696,-0.000161
0.0900,-0.002121,-0.011383,-0.998566,-0.002103,0.003528,-0.003115
0.1000,-0.001678,-0.010925,-0.999588,-0.003081,0.002080,-0.004363
0.1100,-0.002609,-0.009979,-0.998474,-0.001017,0.003060,-0.001851
0.1200,-0.001678,-0.009293,-1.000198,-0.003586,0.004748,-0.002523
0.1300,-0.002563,-0.009430,-0.999710,-0.003406,0.004832,-0.002599
0.1400,-0.001846,-0.010361,-0.998871,-0.002036,0.003799,-0.003670
0.1500,-0.001953,-0.010071,-0.999741,-0.003430,0.004528,-0.001512
0.1600,-0.001007,-0.011566,-1.000397,-0.003096,0.003066,-0.002402
0.1700,-0.002502,-0.010544,-0.998703,-0.001660,0.004198,-0.001107
0.1800,-0.001755,-0.010239,-1.000183,-0.001993,0.002562,-0.000938
0.1900,-0.001892,-0.010880,-1.000900,-0.002702,0.002172,-0.001810
0.2000,-0.002869,-0.008713,-0.998459,-0.002643,0.002917,-0.001044
0.2100,-0.003265,-0.009750,-1.000427,-0.002919,0.004477,-0.001496
0.2200,-0.002991,-0.010376,-1.000504,-0.002951,0.003634,-0.001373
0.2300,-0.000931,-0.010056,-0.999298,-0.003081,0.003876,0.000292
0.2400,-0.000992,-0.009811,-1.000519,-0.003835,0.004543,-0.001823
0.2500,-0.001678,-0.010345,-0.999100,-0.003251,0.003381,-0.001651
0.2600,-0.001373,-0.010666,-0.999924,-0.001929,0.003347,-0.001075
0.2700,-0.001144,-0.010437,-0.999481,-0.002321,0.003967,-0.001491
0.2800,-0.002197,-0.009491,-0.999039,-0.003725,0.004736,-0.003018
0.2900,-0.001328,-0.009644,-1.000656,-0.002121,0.001763,-0.000810
0.3000,-0.003418,-0.009506,-0.999771,-0.003000,0.004099,-0.002204
0.3100,-0.002792,-0.009003,-0.998718,-0.003349,0.005603,-0.000630
0.3200,-0.001770,-0.009476,-0.999146,-0.002325,0.002708,-0.000546
0.3300,-0.002213,-0.009720,-0.999115,-0.002031,0.003775,-0.003227
0.3400,-0.001587,-0.009216,-0.998947,-0.004410,0.003701,-0.002684
0.3500,-0.002457,-0.010712,-0.998215,-0.003226,0.004503,-0.002268
0.3600,-0.003021,-0.011078,-1.000031,-0.004468,0.004240,-0.002076
0.3700,-0.001602,-0.009476,-0.999374,-0.003786,0.003915,-0.002107
0.3800,-0.000610,-0.010132,-1.000381,-0.004524,0.003671,-0.001741
0.3900,-0.000977,-0.009583,-0.999695,-0.003543,0.004605,-0.001917
0.4000,-0.001373,-0.010330,-0.999344,-0.002436,0.004954,-0.000248
0.4100,-0.001556,-0.009933,-0.999939,-0.001768,0.004622,-0.001646
0.4200,-0.002350,-0.010178,-1.000351,-0.003173,0.005063,-0.002445
0.4300,-0.001602,-0.010956,-0.999924,-0.003210,0.003935,-0.000368
0.4400,-0.001373,-0.011108,-0.998398,-0.002177,0.003505,-0.001070
0.4500,-0.001053,-0.011719,-0.998474,-0.003818,0.004158,-0.002190
0.4600,-0.001404,-0.011322,-0.999588,-0.003296,0.003844,-0.001696
0.4700,-0.001389,-0.011887,-0.999481,-0.003324,0.002825,-0.001864
0.4800,-0.001862,-0.009552,-1.000183,-0.002820,0.004978,-0.000654
0.4900,-0.001663,-0.010330,-0.999481,-0.003747,0.002712,-0.002588
0.5000,-0.001877,-0.010040,-0.998459,-0.003314,0.004145,-0.001965
0.5100,-0.002167,-0.009033,-0.998718,-0.003433,0.003220,-0.002008
0.5200,-0.000732,-0.010300,-1.000595,-0.001604,0.003239,-0.004076
0.5300,-0.001785,-0.010437,-0.999756,-0.003344,0.003958,-0.000847
0.5400,-0.001266,-0.010818,-1.000504,-0.003293,0.002708,-0.001998
0.5500,-0.001175,-0.009277,-0.999527,-0.002502,0.005344,-0.001679
0.5600,-0.000549,-0.010254,-1.000687,-0.003888,0.004688,-0.002031
0.5700,-0.001709,-0.009262,-0.998901,-0.002456,0.004363,-0.001924
0.5800,-0.001511,-0.009109,-1.000015,-0.003136,0.004136,-0.000737
0.5900,-0.002060,-0.009811,-0.999237,-0.004557,0.004306,-0.002682
0.6000,-0.003021,-0.010590,-0.999573,-0.002008,0.003425,-0.003016
0.6100,-0.002350,-0.010635,-0.999954,-0.002663,0.004535,-0.001959
0.6200,-0.002197,-0.010361,-1.001114,-0.002918,0.004317,-0.000723
0.6300,-0.001251,-0.009857,-1.000610,-0.003804,0.004124,-0.001758
0.6400,-0.001999,-0.010681,-0.999435,-0.002943,0.003981,-0.001815
0.6500,-0.001831,-0.010544,-0.998474,-0.003084,0.004929,-0.001940
0.6600,-0.002350,-0.010437,-0.997910,-0.003601,0.005309,-0.002022
0.6700,-0.001892,-0.010834,-0.998901,-0.002919,0.004222,-0.002135
0.6800,-0.001938,-0.009384,-0.998795,-0.001930,0.004229,-0.001200
0.6900,-0.002045,-0.010986,-0.999054,-0.003631,0.004133,-0.002329
0.7000,-0.001770,-0.011139,-0.999466,-0.002017,0.004569,-0.003547
0.7100,-0.001862,-0.010956,-1.000061,-0.003271,0.003314,-0.001003
0.7200,-0.002335,-0.011063,-0.999161,-0.002631,0.003769,-0.000255
0.7300,-0.001053,-0.011139,-0.999588,-0.005013,0.002920,-0.000719
0.7400,-0.001617,-0.010468,-0.998352,-0.002673,0.004994,-0.001824
0.7500,-0.000107,-0.010513,-0.999680,-0.003192,0.003742,-0.002764
0.7600,-0.001572,-0.010132,-0.999512,-0.004242,0.003585,-0.001516
0.7700,-0.001648,-0.009781,-1.000137,-0.002333,0.004053,-0.002325
0.7800,-0.001663,-0.011108,-1.000061,-0.001507,0.003363,-0.002311
0.7900,-0.001602,-0.010132,-0.998535,-0.003654,0.003510,-0.002401
0.8000,-0.000748,-0.010635,-0.999130,-0.003422,0.005200,-0.002182
0.8100,-0.001068,-0.009476,-1.000458,-0.003790,0.003600,-0.000410
0.8200,-0.002731,-0.011139,-1.000351,-0.004920,0.003248,-0.002120
0.8300,-0.002869,-0.011108,-1.000641,-0.003696,0.004171,-0.001939
0.8400,-0.002380,-0.010101,-1.000122,-0.003940,0.004726,-0.003021
0.8500,-0.001007,-0.010788,-1.000076,-0.004466,0.004795,-0.001810
0.8600,-0.002304,-0.010986,-0.999695,-0.003068,0.004057,-0.002383
0.8700,-0.002319,-0.010956,-0.999115,-0.003787,0.003000,-0.003300
0.8800,-0.001862,-0.011551,-1.000168,-0.002480,0.003069,-0.002404
0.8900,-0.002167,-0.010681,-1.001175,-0.002944,0.004760,-0.002799
0.9000,-0.002213,-0.010315,-1.000381,-0.003730,0.005180,-0.000227
0.9100,-0.001266,-0.010635,-0.998901,-0.003000,0.003184,-0.001784
0.9200,-0.003525,-0.009735,-1.000031,-0.003662,0.003853,-0.003298
0.9300,-0.001587,-0.009537,-1.000214,-0.003574,0.004237,-0.001664
0.9400,-0.001053,-0.009689,-1.001526,-0.001536,0.002168,-0.000538
0.9500,0.000092,-0.008636,-0.999039,-0.002080,0.004161,-0.001507
0.9600,-0.002960,-0.009323,-0.999741,-0.003008,0.003037,-0.002063
0.9700,-0.003235,-0.009430,-0.999268,-0.003713,0.003692,-0.001905
0.9800,-0.003632,-0.009995,-0.999283,-0.003608,0.004259,-0.001555
0.9900,-0.001328,-0.009171,-1.000153,-0.003844,0.002993,-0.002113
1.0000,-0.002274,-0.010803,-0.999756,-0.003163,0.004985,-0.001567
1.0100,-0.002121,-0.011398,-0.999756,-0.003399,0.004322,-0.001163
1.0200,-0.001251,-0.011963,-1.000443,-0.002122,0.002675,-0.002772
1.0300,-0.002426,-0.010391,-0.999161,-0.004103,0.004993,-0.001361
1.0400,-0.002701,-0.010544,-1.000122,-0.002821,0.005009,-0.003543
1.0500,-0.001755,-0.009720,-1.000168,-0.003785,0.003641,-0.002723
1.0600,-0.002060,-0.010452,-0.999802,-0.003319,0.003629,-0.002398
1.0700,-0.000381,-0.009018,-0.999252,-0.002728,0.004144,-0.002550
1.0800,-0.001862,-0.009766,-0.999390,-0.003496,0.004263,-0.002596
1.0900,-0.001785,-0.010269,-1.000732,-0.003527,0.003980,-0.001552
1.1000,-0.002487,-0.010712,-0.998917,-0.002661,0.004897,-0.001636
1.1100,-0.001328,-0.010132,-0.998703,-0.002882,0.003907,-0.000619
1.1200,-0.003204,-0.010971,-0.999268,-0.001930,0.003971,-0.000983
1.1300,-0.001907,-0.009537,-0.999023,-0.003583,0.004833,-0.000879
1.1400,-0.001099,-0.010803,-0.999588,-0.002188,0.003723,-0.000780
1.1500,-0.001404,-0.009720,-0.998871,-0.001519,0.003303,-0.001436
1.1600,-0.001526,-0.009521,-1.000046,-0.004730,0.003124,-0.000548
1.1700,-0.003021,-0.009598,-1.001312,-0.002344,0.003931,-0.001307
1.1800,-0.001862,-0.010406,-0.998993,-0.002793,0.002507,-0.001237
1.1900,-0.001434,-0.010742,-0.999664,-0.003101,0.003900,-0.000467
1.2000,-0.001709,-0.009842,-0.998795,-0.002958,0.004751,-0.001664
1.2100,-0.001740,-0.009460,-1.000305,-0.003221,0.004749,-0.002076
1.2200,-0.002106,-0.009659,-0.999771,-0.001770,0.003728,-0.001599
1.2300,-0.001923,-0.009720,-0.999710,-0.004262,0.003784,-0.001018
1.2400,-0.002396,-0.009995,-1.000519,-0.002691,0.002990,-0.001146
1.2500,-0.002075,-0.010757,-0.999252,-0.002891,0.002408,-0.004499
1.2600,-0.002335,-0.010468,-1.000824,-0.003363,0.001675,-0.002396
1.2700,-0.001785,-0.009232,-1.000534,-0.004220,0.004407,-0.002027
1.2800,-0.001770,-0.010468,-0.999893,-0.003409,0.004017,-0.001658
1.2900,-0.001495,-0.010834,-0.999084,-0.004137,0.003347,-0.001521
1.3000,-0.001236,-0.010666,-0.999405,-0.003439,0.003401,-0.001589
1.3100,-0.001724,-0.008881,-1.001083,-0.002535,0.003508,-0.000359
1.3200,-0.002045,-0.009598,-1.001007,-0.003815,0.003838,-0.001639
1.3300,-0.001709,-0.010223,-0.999908,-0.003377,0.003981,-0.001550
1.3400,-0.001892,-0.010635,-0.998795,-0.003381,0.004626,-0.002850
1.3500,-0.001495,-0.010010,-1.000305,-0.004105,0.003528,-0.002439
1.3600,-0.001938,-0.009033,-0.999664,-0.003113,0.005659,-0.000960
1.3700,-0.001068,-0.009995,-1.000580,-0.003756,0.003417,-0.001516
1.3800,-0.001938,-0.010315,-1.000198,-0.005513,0.002802,-0.002212
1.3900,-0.002136,-0.010010,-0.998459,-0.003213,0.003525,-0.003003
1.4000,-0.002121,-0.010712,-0.998398,-0.003280,0.005046,0.000578
1.4100,-0.001770,-0.010895,-0.999115,-0.004525,0.002517,-0.001143
1.4200,-0.002502,-0.010818,-0.999252,-0.003827,0.003247,-0.001489
1.4300,-0.001465,-0.008881,-0.998413,-0.002432,0.003299,-0.002444
1.4400,-0.001816,-0.010590,-1.000854,-0.001984,0.002469,-0.001585
1.4500,-0.002106,-0.009613,-1.000717,-0.003470,0.004948,-0.001159
1.4600,-0.002487,-0.009583,-0.998917,-0.003699,0.004054,-0.001203
1.4700,-0.000900,-0.008728,-0.999802,-0.002079,0.003722,-0.001472
1.4800,-0.000931,-0.010574,-0.999008,-0.003270,0.004522,0.000130
1.4900,-0.002380,-0.010681,-0.998688,-0.002419,0.003623,-0.001687
1.5000,-0.001221,-0.010529,-0.999420,-0.003657,0.004709,-0.001001
1.5100,-0.002472,-0.010254,-0.999832,-0.002228,0.002916,-0.002486
1.5200,-0.001541,-0.008911,-1.000961,-0.002580,0.004311,-0.000965
1.5300,-0.000473,-0.010483,-1.000626,-0.003073,0.002503,-0.001151
1.5400,-0.000290,-0.010895,-0.999313,-0.004089,0.004446,-0.000985
1.5500,-0.001556,-0.009628,-1.000122,-0.002663,0.003461,-0.000878
1.5600,-0.002182,-0.009857,-0.999237,-0.002717,0.004115,-0.000928
1.5700,-0.001587,-0.010956,-0.999466,-0.004625,0.003959,-0.001573
1.5800,-0.002518,-0.009918,-1.000320,-0.004653,0.003474,-0.003666
1.5900,-0.002258,-0.011368,-0.999435,-0.003221,0.003433,-0.002774
1.6000,-0.001862,-0.010452,-1.000305,-0.002809,0.002485,-0.002769
1.6100,-0.001892,-0.010391,-1.000351,-0.002499,0.002995,-0.000695
1.6200,-0.001770,-0.010574,-1.000107,-0.003958,0.004821,-0.003313
1.6300,-0.001602,-0.009903,-0.998795,-0.001491,0.004360,-0.003182
1.6400,-0.002167,-0.010117,-0.998947,-0.003606,0.003362,-0.000266
1.6500,-0.001724,-0.008438,-0.999832,-0.004069,0.004183,-0.002159
1.6600,-0.002243,-0.009216,-0.999664,-0.001761,0.003580,-0.000958
1.6700,-0.002075,-0.010406,-0.999451,-0.002768,0.004293,-0.001401
1.6800,-0.001740,-0.009430,-1.001419,-0.003654,0.003533,-0.002508
1.6900,-0.001236,-0.009018,-1.001419,-0.003520,0.002957,-0.002095
1.7000,-0.001907,-0.009811,-1.000015,-0.003264,0.003376,-0.001855
1.7100,-0.003342,-0.010162,-0.998993,-0.002592,0.004736,0.000290
1.7200,-0.002121,-0.009964,-1.000397,-0.003899,0.002833,-0.002661
1.7300,-0.002045,-0.009384,-1.000671,-0.003839,0.004103,-0.000642
1.7400,-0.001938,-0.010422,-0.999695,-0.004649,0.005187,-0.001612
1.7500,-0.002258,-0.010010,-0.999466,-0.003232,0.003928,-0.001787
1.7600,-0.002136,-0.009430,-0.999237,-0.003577,0.002569,-0.002093
1.7700,-0.003204,-0.009872,-0.999573,-0.003386,0.003476,-0.000268
1.7800,-0.002014,-0.010513,-0.999756,-0.002549,0.002868,-0.000750
1.7900,-0.002533,-0.010406,-0.999924,-0.003000,0.003939,-0.001920
1.8000,-0.001007,-0.010468,-0.999161,-0.002647,0.004160,-0.001202
1.8100,-0.001465,-0.009491,-0.998978,-0.002801,0.004594,-0.002621
1.8200,-0.000641,-0.010162,-0.999512,-0.001712,0.003874,-0.002006
1.8300,-0.001556,-0.009308,-0.999161,-0.003214,0.003908,-0.002217
1.8400,-0.001434,-0.008774,-1.000015,-0.003505,0.004883,-0.000209
1.8500,-0.001862,-0.010544,-1.000778,-0.003497,0.003870,-0.002669
1.8600,-0.002060,-0.010605,-0.999771,-0.002611,0.003647,-0.002577
1.8700,-0.001266,-0.009827,-0.999802,-0.002803,0.002399,-0.002265
1.8800,-0.002182,-0.010208,-0.999405,-0.004054,0.004474,-0.002088
1.8900,-0.003250,-0.009857,-1.000320,-0.003822,0.004281,-0.001760
1.9000,-0.001160,-0.009277,-0.999298,-0.002996,0.003943,-0.000992
1.9100,-0.002686,-0.009995,-1.000412,-0.002025,0.003761,-0.003010
1.9200,-0.001099,-0.010529,-0.998245,-0.003406,0.003434,-0.001957
1.9300,-0.002060,-0.009888,-0.999603,-0.001629,0.004459,-0.001528
1.9400,-0.001938,-0.010162,-0.999496,-0.002752,0.004311,-0.001126
1.9500,-0.002533,-0.009766,-0.999557,-0.002992,0.004284,-0.000204
1.9600,-0.002258,-0.010406,-1.000198,-0.002176,0.002617,0.000054
1.9700,-0.001617,-0.009354,-0.998932,-0.002674,0.004873,-0.002201
1.9800,-0.001175,-0.010284,-0.997833,-0.003433,0.003929,-0.000827
1.9900,-0.000839,-0.012131,-0.998550,-0.003821,0.002282,-0.001130
2.0000,-0.001389,-0.009964,-0.999695,-0.003518,0.002897,-0.001413
2.0100,-0.002579,-0.009598,-0.999725,-0.002674,0.004770,-0.002134
2.0200,-0.001617,-0.008942,-0.998535,-0.004017,0.004083,-0.001479
2.0300,-0.001617,-0.010406,-0.998993,-0.003116,0.003603,-0.001737
2.0400,-0.002151,-0.009262,-1.000565,-0.003315,0.003538,-0.002173
2.0500,-0.001846,-0.009293,-0.999283,-0.004269,0.004162,-0.002725
2.0600,-0.003357,-0.010300,-1.000717,-0.002803,0.003891,-0.001613
2.0700,-0.001099,-0.009781,-1.000122,-0.003131,0.003956,-0.003312
2.0800,-0.002396,-0.009827,-0.998749,-0.003761,0.003460,-0.001497
2.0900,-0.002838,-0.010422,-0.996994,-0.002717,0.003450,-0.001309
2.1000,-0.001541,-0.008789,-0.999176,-0.003000,0.004292,-0.000044
2.1100,-0.002274,-0.009979,-1.000397,-0.003588,0.003560,-0.001060
2.1200,-0.001892,-0.010452,-0.999573,-0.002946,0.004312,-0.001932
2.1300,-0.001526,-0.011566,-1.000107,-0.002497,0.003757,-0.000350
2.1400,-0.002075,-0.010742,-0.999557,-0.002007,0.003912,-0.001492
2.1500,-0.002426,-0.010025,-0.998383,-0.003406,0.003961,-0.001773
2.1600,-0.001648,-0.008865,-0.999527,-0.002345,0.003291,-0.002810
2.1700,-0.002380,-0.009567,-0.999802,-0.002733,0.004540,-0.001296
2.1800,-0.003021,-0.010910,-0.999573,-0.003932,0.004353,-0.003522
2.1900,-0.002243,-0.010406,-0.999237,-0.003579,0.002912,-0.000244
2.2000,-0.001999,-0.010284,-1.000992,-0.003336,0.003573,-0.001548
2.2100,-0.001938,-0.010056,-0.999176,-0.002906,0.003467,-0.002055
2.2200,-0.000870,-0.010971,-0.999039,-0.003774,0.003236,-0.001439
2.2300,-0.002151,-0.010788,-1.000549,-0.005184,0.003130,-0.002929
2.2400,-0.002472,-0.009613,-0.999008,-0.004005,0.004453,-0.001919
2.2500,-0.001053,-0.009384,-0.999619,-0.003211,0.003875,-0.001540
2.2600,-0.002182,-0.010147,-0.998672,-0.002947,0.004245,-0.002944
2.2700,-0.001511,-0.011261,-1.000931,-0.002871,0.003810,-0.001617
2.2800,-0.002457,-0.009720,-1.000946,-0.004630,0.003851,-0.000487
2.2900,-0.001328,-0.009903,-0.999115,-0.003654,0.003305,-0.002315
2.3000,-0.001129,-0.011475,-0.999954,-0.002941,0.002700,-0.001967
2.3100,-0.001389,-0.010849,-0.999588,-0.003356,0.002885,-0.002624
2.3200,-0.002991,-0.009796,-1.000732,-0.004112,0.003381,-0.001564
2.3300,-0.002975,-0.010330,-1.000290,-0.002574,0.004986,-0.002021
2.3400,-0.001419,-0.009476,-0.999176,-0.002818,0.004932,-0.002343
2.3500,-0.002167,-0.008743,-0.999466,-0.002826,0.003018,-0.000366
2.3600,-0.002533,-0.010223,-1.000809,-0.003206,0.003759,-0.001340
2.3700,-0.001862,-0.011307,-0.999359,-0.003919,0.003140,-0.001370
2.3800,-0.001068,-0.009766,-0.998962,-0.002560,0.002960,-0.002059
2.3900,-0.001587,-0.009781,-1.000977,-0.004270,0.003559,-0.001070
2.4000,-0.002090,-0.009659,-0.999298,-0.002848,0.002025,-0.002482
2.4100,-0.002563,-0.010971,-1.000565,-0.002713,0.003780,-0.004893
2.4200,-0.002655,-0.009323,-0.999252,-0.002107,0.003709,-0.001438
2.4300,-0.001724,-0.010056,-0.998856,-0.003949,0.004095,-0.003033
2.4400,-0.002396,-0.010223,-0.999588,-0.002226,0.003645,-0.000474
2.4500,-0.003708,-0.010422,-0.999527,-0.002230,0.004629,-0.002895
2.4600,-0.002014,-0.011154,-0.999756,-0.003503,0.003709,-0.000777
2.4700,-0.001526,-0.011368,-0.999893,-0.003197,0.004869,-0.003277
2.4800,-0.002151,-0.010681,-0.999268,-0.002892,0.003822,-0.001931
2.4900,-0.000641,-0.010147,-0.999573,-0.003731,0.005000,-0.002711
2.5000,-0.002792,-0.010559,-0.999832,-0.002672,0.003948,-0.002833
2.5100,-0.003540,-0.009842,-0.999847,-0.001823,0.004208,-0.002058
2.5200,-0.002274,-0.010223,-0.999268,-0.003121,0.003920,-0.001610
2.5300,-0.001984,-0.009186,-0.998978,-0.003813,0.004488,-0.000731
2.5400,-0.002243,-0.010590,-0.998428,-0.004136,0.003649,-0.001722
2.5500,-0.000748,-0.010559,-0.999344,-0.002515,0.003667,-0.001207
2.5600,-0.000793,-0.009933,-1.000137,-0.003768,0.003634,-0.002040
2.5700,-0.001999,-0.010635,-0.998474,-0.005090,0.005383,-0.001927
2.5800,-0.002441,-0.009979,-0.998856,-0.002979,0.004316,-0.002038
2.5900,-0.002106,-0.009659,-0.998428,-0.003215,0.003206,-0.001981
2.6000,-0.002304,-0.010574,-0.999527,-0.003738,0.003759,-0.002655
2.6100,-0.001480,-0.010254,-0.998810,-0.002162,0.003383,-0.002871
2.6200,-0.001541,-0.010712,-1.000534,-0.003412,0.004748,-0.002002
2.6300,-0.001160,-0.010300,-0.999237,-0.000969,0.003656,-0.002472
2.6400,-0.001709,-0.011734,-1.000748,-0.004368,0.003677,-0.002650
2.6500,-0.003433,-0.010223,-1.000458,-0.003233,0.003449,-0.001176
2.6600,-0.002060,-0.009323,-1.000351,-0.002626,0.002684,-0.002180
2.6700,-0.001663,-0.009445,-1.000366,-0.003191,0.002260,-0.001358
2.6800,-0.001434,-0.009827,-0.998322,-0.003583,0.003076,-0.002482
2.6900,-0.001709,-0.009659,-0.998856,-0.001980,0.003893,-0.003817
2.7000,-0.001938,-0.010590,-0.999329,-0.004061,0.003771,-0.001760
2.7100,-0.001495,-0.009933,-0.999359,-0.002343,0.003727,-0.003531
2.7200,-0.002426,-0.009964,-0.999512,-0.004736,0.004818,-0.000317
2.7300,-0.001877,-0.010330,-0.999710,-0.004704,0.004393,-0.001804
2.7400,-0.002716,-0.010468,-0.999588,-0.003747,0.004503,-0.001425
2.7500,-0.001801,-0.010422,-0.999084,-0.003925,0.003476,-0.001293
2.7600,-0.001953,-0.010086,-1.000259,-0.003926,0.003779,-0.001717
2.7700,-0.001083,-0.009506,-0.999176,-0.003511,0.004354,-0.002002
2.7800,-0.001236,-0.010086,-0.999573,-0.001901,0.003035,-0.001524
2.7900,-0.001770,-0.009964,-1.000656,-0.002402,0.004962,-0.002547
2.8000,-0.002548,-0.009521,-0.998337,-0.002723,0.004181,-0.001805
2.8100,-0.000763,-0.011017,-1.000809,-0.003505,0.004660,-0.001716
2.8200,-0.002029,-0.010788,-1.000412,-0.002972,0.004640,-0.003461
2.8300,-0.002350,-0.009903,-0.998123,-0.003410,0.003799,-0.003035
2.8400,-0.002441,-0.010223,-0.999832,-0.004510,0.002760,-0.001419
2.8500,-0.002319,-0.009338,-0.999649,-0.002823,0.002832,-0.000368
2.8600,-0.001892,-0.009506,-0.998398,-0.002682,0.002516,-0.000258
2.8700,-0.001968,-0.010925,-0.998444,-0.002603,0.004206,-0.002055
2.8800,-0.001801,-0.011032,-0.999100,-0.002241,0.003835,-0.001238
2.8900,-0.001846,-0.010406,-1.000595,-0.002852,0.003697,-0.000291
2.9000,-0.001984,-0.009857,-0.999802,-0.003803,0.003982,-0.001194
2.9100,-0.001328,-0.009598,-0.998398,-0.001971,0.004337,-0.001458
2.9200,-0.002090,-0.012314,-1.000107,-0.003213,0.004549,-0.002557
2.9300,-0.002655,-0.010941,-1.000198,-0.004515,0.004200,-0.001101
2.9400,-0.002655,-0.009827,-0.999390,-0.003052,0.004406,-0.001998
2.9500,-0.002014,-0.009888,-0.999863,-0.002218,0.003471,-0.001048
2.9600,-0.003479,-0.010345,-0.999695,-0.002494,0.004611,-0.002000
2.9700,-0.002197,-0.009552,-0.999954,-0.004311,0.004870,-0.000376
2.9800,-0.001968,-0.010056,-0.999466,-0.003630,0.003726,-0.000634
2.9900,-0.002380,-0.011032,-1.000992,-0.003463,0.003213,-0.001466
3.0000,-0.002335,-0.010117,-0.999969,-0.002030,0.005141,-0.001336
3.0100,-0.001678,-0.009521,-0.998962,-0.003951,0.004246,0.000330
3.0200,-0.001221,-0.009201,-0.999481,-0.001712,0.004095,-0.002364
3.0300,-0.001938,-0.010574,-0.998901,-0.003113,0.003678,-0.000815
3.0400,-0.002090,-0.009964,-0.999832,-0.003346,0.004132,-0.003030
3.0500,-0.002228,-0.010895,-0.999008,-0.002379,0.004360,-0.000696
3.0600,-0.002670,-0.010071,-0.999680,-0.003153,0.002281,-0.002517
3.0700,-0.002365,-0.010864,-1.000061,-0.003265,0.004070,-0.000919
3.0800,-0.001938,-0.010056,-0.999817,-0.003569,0.004470,-0.001458
3.0900,-0.002914,-0.010803,-0.998108,-0.004654,0.004015,-0.001179
3.1000,-0.002121,-0.009979,-0.999985,-0.003856,0.004616,-0.001534
3.1100,-0.001633,-0.010178,-0.999222,-0.003231,0.003879,-0.001515
3.1200,-0.001572,-0.009857,-0.999985,-0.004072,0.002554,-0.002971
3.1300,-0.003448,-0.009918,-0.999527,-0.004313,0.002785,-0.002841
3.1400,-0.003204,-0.009308,-0.999207,-0.004346,0.002681,-0.000704
3.1500,-0.002579,-0.009796,-1.000168,-0.003843,0.002956,-0.001088
3.1600,-0.002106,-0.010544,-1.000732,-0.004535,0.003830,-0.001164
3.1700,-0.000870,-0.009689,-1.000198,-0.004417,0.003858,-0.001659
3.1800,-0.001221,-0.010971,-0.999298,-0.003440,0.004469,-0.001984
3.1900,-0.001251,-0.010117,-0.999496,-0.002377,0.002941,-0.001410
3.2000,-0.001434,-0.010925,-0.999832,-0.003122,0.004837,-0.003375
3.2100,-0.001602,-0.011337,-0.999481,-0.003417,0.004188,-0.002040
3.2200,-0.001099,-0.010178,-0.999496,-0.003470,0.003161,-0.001858
3.2300,-0.001450,-0.011093,-1.000717,-0.003139,0.005492,-0.001950
3.2400,-0.001556,-0.011093,-0.999451,-0.003134,0.003667,-0.000897
3.2500,-0.002640,-0.009445,-1.000031,-0.003590,0.003238,-0.001668
3.2600,-0.001175,-0.010254,-0.999710,-0.002389,0.004348,-0.001462
3.2700,-0.002228,-0.010178,-1.000305,-0.004149,0.002864,-0.001334
3.2800,-0.002365,-0.009720,-0.998840,-0.002286,0.004212,-0.001121
3.2900,-0.001938,-0.011017,-0.999451,-0.003268,0.002813,-0.000519
3.3000,-0.002075,-0.009933,-1.000198,-0.001858,0.004202,-0.000521
3.3100,-0.001175,-0.009644,-0.998672,-0.003837,0.004453,-0.002451
3.3200,-0.001877,-0.010620,-0.999298,-0.001365,0.002880,-0.001689
3.3300,-0.002731,-0.010773,-0.999390,-0.002238,0.002682,-0.001595
3.3400,-0.002304,-0.010223,-0.999969,-0.002598,0.003361,-0.000742
3.3500,-0.002625,-0.008621,-0.999237,-0.002878,0.004088,-0.001854
3.3600,-0.002213,-0.010422,-0.998672,-0.003083,0.003844,-0.002397
3.3700,-0.002563,-0.010437,-0.998230,-0.003644,0.004003,-0.002451
3.3800,-0.002014,-0.009857,-0.999283,-0.003019,0.005420,-0.000685
3.3900,-0.001556,-0.010117,-0.999619,-0.003519,0.003310,-0.000719
3.4000,-0.001968,-0.009995,-0.998947,-0.002700,0.003788,-0.002530
3.4100,-0.002213,-0.009659,-0.999680,-0.002532,0.002590,-0.003048
3.4200,-0.001343,-0.009674,-1.000320,-0.003005,0.003399,-0.001588
3.4300,-0.000626,-0.010574,-0.999634,-0.002954,0.004741,-0.001762
3.4400,-0.002533,-0.009598,-1.000076,-0.002697,0.003916,-0.001968
3.4500,-0.002579,-0.009613,-0.999908,-0.002781,0.005475,-0.001503
3.4600,-0.001755,-0.010513,-0.998398,-0.003937,0.003401,0.000865
3.4700,-0.002213,-0.009506,-0.999619,-0.002321,0.004124,-0.000833
3.4800,-0.001816,-0.009537,-0.999496,-0.002915,0.004102,-0.002515
3.4900,-0.001129,-0.009232,-1.000366,-0.003561,0.001250,-0.002446
3.5000,-0.001297,-0.008743,-0.999268,-0.004250,0.002970,-0.000040
3.5100,-0.002060,-0.009171,-0.999649,-0.002781,0.004931,-0.000808
3.5200,-0.001236,-0.010345,-1.000427,-0.002622,0.004452,-0.002107
3.5300,-0.001282,-0.010895,-0.998276,-0.004204,0.005626,-0.000804
3.5400,-0.001282,-0.009766,-0.998795,-0.004254,0.002995,-0.001849
3.5500,-0.001328,-0.010971,-1.000000,-0.001938,0.003736,-0.001469
3.5600,-0.002213,-0.010773,-0.999390,-0.003386,0.003611,-0.002861
3.5700,-0.001038,-0.009766,-0.999298,-0.002879,0.003891,-0.002339
3.5800,-0.002472,-0.009445,-1.000381,-0.003850,0.003071,-0.000683
3.5900,-0.001282,-0.009766,-1.000381,-0.000892,0.004061,-0.002413
3.6000,-0.001190,-0.010391,-1.000122,-0.002119,0.003428,-0.001550
3.6100,-0.002411,-0.009140,-1.000214,-0.002860,0.004407,-0.000935
3.6200,-0.001526,-0.008850,-1.000290,-0.001717,0.002748,-0.001173
3.6300,-0.002335,-0.011032,-0.999832,-0.002275,0.003876,-0.001715
3.6400,-0.001953,-0.010605,-0.998840,-0.003180,0.004217,-0.001789
3.6500,-0.001923,-0.011047,-0.999588,-0.004375,0.003660,-0.000506
3.6600,-0.002411,-0.009918,-1.000290,-0.003330,0.003742,-0.003074
3.6700,-0.001175,-0.011047,-0.998856,-0.002981,0.004946,-0.002079
3.6800,-0.002243,-0.008987,-0.999435,-0.002413,0.003924,-0.003023
3.6900,-0.001328,-0.010727,-0.999680,-0.002825,0.002967,-0.001800
3.7000,-0.000839,-0.010162,-0.999039,-0.004323,0.004348,-0.001097
3.7100,-0.001831,-0.010086,-1.000381,-0.002536,0.004380,-0.001924
3.7200,-0.001953,-0.009628,-0.999466,-0.001864,0.002682,-0.002251
3.7300,-0.002533,-0.011093,-0.999405,-0.003042,0.004673,-0.001768
3.7400,-0.001984,-0.010239,-0.999359,-0.003363,0.004428,-0.000854
3.7500,-0.002518,-0.010986,-0.999435,-0.003977,0.002195,-0.002154
3.7600,-0.002396,-0.011246,-0.998871,-0.002070,0.004902,-0.002560
3.7700,-0.001404,-0.009857,-0.999527,-0.002810,0.003031,-0.000729
3.7800,-0.001953,-0.010101,-0.999329,-0.003128,0.004008,-0.001350
3.7900,-0.001404,-0.010117,-1.000351,-0.003597,0.004153,-0.002388
3.8000,-0.001556,-0.009338,-0.999069,-0.003634,0.004233,-0.003898
3.8100,-0.001358,-0.009521,-1.000275,-0.004205,0.003400,-0.001611
3.8200,-0.002686,-0.009293,-1.000519,-0.003559,0.003521,-0.001292
3.8300,-0.002609,-0.010147,-0.999954,-0.002720,0.003215,-0.003532
3.8400,-0.001251,-0.009933,-0.998734,-0.002325,0.004699,-0.003006
3.8500,-0.002502,-0.009537,-0.998428,-0.003836,0.002600,-0.000611
3.8600,-0.002213,-0.010269,-1.000259,-0.002914,0.004705,-0.001968
3.8700,-0.000519,-0.010620,-0.999466,-0.003929,0.003992,-0.001703
3.8800,-0.002167,-0.011017,-0.998901,-0.003368,0.003784,-0.002463
3.8900,-0.002594,-0.009171,-0.999329,-0.003193,0.003531,0.000123
3.9000,-0.001678,-0.010178,-0.999359,-0.003002,0.004486,-0.002064
3.9100,-0.002518,-0.009644,-1.000580,-0.002549,0.002887,-0.000303
3.9200,-0.001526,-0.011444,-1.000320,-0.003284,0.003933,-0.000366
3.9300,-0.001785,-0.010086,-0.999954,-0.002050,0.003904,-0.000398
3.9400,-0.002441,-0.009476,-1.000427,-0.002053,0.003768,-0.000663
3.9500,-0.002579,-0.008575,-0.999176,-0.003440,0.002859,-0.000928
3.9600,-0.001068,-0.009766,-1.000351,-0.002504,0.002925,-0.001225
3.9700,-0.002670,-0.010025,-0.999405,-0.003192,0.005593,-0.003211
3.9800,-0.002625,-0.010834,-1.000778,-0.002983,0.003715,-0.001960
3.9900,-0.002609,-0.010208,-1.000259,-0.002277,0.004985,-0.001673
4.0000,-0.003067,-0.010590,-0.999222,-0.002686,0.004896,-0.001105
4.0100,-0.002228,-0.011795,-1.000137,-0.003238,0.003267,-0.003188
4.0200,-0.002869,-0.010971,-1.000214,-0.002024,0.003092,-0.003104
4.0300,-0.002274,-0.010223,-0.999481,-0.003198,0.003452,-0.002789
4.0400,-0.001160,-0.010529,-1.000656,-0.003043,0.003280,-0.000087
4.0500,-0.000702,-0.010483,-1.001190,-0.004000,0.003200,-0.000054
4.0600,-0.002411,-0.011047,-1.000427,-0.001313,0.003311,-0.001008
4.0700,-0.003418,-0.010498,-0.999268,-0.001680,0.004107,-0.003079
4.0800,-0.001572,-0.009903,-0.999466,-0.004037,0.003748,-0.001328
4.0900,-0.001541,-0.010040,-1.000244,-0.003826,0.004688,-0.002708
4.1000,-0.001236,-0.010696,-0.999481,-0.003254,0.004312,-0.002296
4.1100,-0.001892,-0.010422,-0.998917,-0.004051,0.003778,-0.002355
4.1200,-0.001190,-0.010635,-0.999649,-0.002101,0.005219,-0.002178
4.1300,-0.000259,-0.009415,-0.998413,-0.003531,0.004609,-0.001540
4.1400,-0.002655,-0.009689,-0.998535,-0.002821,0.003653,-0.002264
4.1500,-0.002365,-0.009369,-0.999329,-0.001718,0.004382,-0.000902
4.1600,-0.001907,-0.010742,-0.998245,-0.003650,0.003557,-0.003344
4.1700,-0.001877,-0.010834,-0.997803,-0.002389,0.003556,-0.001800
4.1800,-0.002182,-0.009521,-0.999588,-0.002478,0.003568,-0.001416
4.1900,-0.002243,-0.010742,-0.999695,-0.001943,0.005575,-0.002522
4.2000,-0.001434,-0.010376,-0.999329,-0.002859,0.003183,-0.002932
4.2100,-0.002228,-0.011871,-1.000107,-0.003821,0.004158,-0.002573
4.2200,-0.002274,-0.009567,-1.001083,-0.002492,0.003284,-0.001951
4.2300,-0.000732,-0.010117,-0.998825,-0.003041,0.004465,-0.001781
4.2400,-0.002014,-0.010056,-0.999954,-0.003416,0.004938,0.000257
4.2500,-0.000992,-0.011292,-0.999008,-0.003271,0.003267,-0.002920
4.2600,-0.002960,-0.009979,-0.998856,-0.002565,0.004042,-0.001480
4.2700,-0.001999,-0.010345,-0.999268,-0.002967,0.003953,-0.001118
4.2800,-0.002701,-0.011047,-0.999283,-0.003612,0.003475,-0.003779
4.2900,-0.002228,-0.010010,-1.000198,-0.003545,0.003297,0.000316
4.3000,-0.001831,-0.010010,-1.000732,-0.003381,0.003792,-0.001177
4.3100,-0.002609,-0.010773,-1.000381,-0.003761,0.002697,-0.001452
4.3200,-0.001785,-0.009918,-1.000626,-0.002911,0.004184,-0.001590
4.3300,-0.002548,-0.009827,-0.999725,-0.003826,0.003196,-0.001845
4.3400,-0.001099,-0.010803,-0.998978,-0.003235,0.003817,-0.002382
4.3500,-0.001816,-0.009521,-0.999420,-0.003295,0.004139,-0.001867
4.3600,-0.002121,-0.010132,-0.999191,-0.002286,0.004651,-0.002015
4.3700,-0.002396,-0.009720,-1.000244,-0.002080,0.003242,-0.002198
4.3800,-0.002136,-0.009537,-0.999817,-0.003531,0.003657,-0.003419
4.3900,-0.001434,-0.009705,-0.999252,-0.003830,0.003713,-0.001031
4.4000,-0.000778,-0.010300,-0.999542,-0.002984,0.003587,-0.003088
4.4100,-0.001877,-0.010880,-0.999924,-0.003709,0.004641,-0.002029
4.4200,-0.002808,-0.010147,-0.999146,-0.002420,0.005926,-0.001453
4.4300,-0.002640,-0.010468,-1.000214,-0.002936,0.003847,-0.001533
4.4400,-0.001755,-0.009979,-0.999786,-0.002402,0.004960,-0.001381
4.4500,-0.002243,-0.009933,-0.999725,-0.004246,0.002712,-0.001450
4.4600,-0.001633,-0.009796,-0.999924,-0.004066,0.003690,-0.002023
4.4700,-0.003189,-0.009125,-1.000259,-0.003278,0.003471,-0.004102
4.4800,-0.001648,-0.009918,-1.000137,-0.002638,0.004360,-0.002005
4.4900,-0.001831,-0.009613,-0.998154,-0.001602,0.003833,-0.002212
4.5000,-0.002136,-0.010178,-0.999466,-0.003822,0.004296,-0.000457
4.5100,-0.002060,-0.009979,-0.999237,-0.003706,0.003265,-0.000889
4.5200,-0.001846,-0.009827,-0.998764,-0.002709,0.004302,0.000313
4.5300,-0.001129,-0.010727,-0.999466,-0.002966,0.003753,-0.000349
4.5400,-0.001923,-0.009125,-0.999573,-0.002831,0.001789,-0.001450
4.5500,-0.003326,-0.009628,-1.000031,-0.003252,0.003958,-0.001271
4.5600,-0.001083,-0.010544,-0.999756,-0.003990,0.003529,-0.001637
4.5700,-0.001083,-0.010300,-0.999939,-0.003961,0.004030,-0.002599
4.5800,-0.001694,-0.011124,-0.998840,-0.003035,0.003720,-0.000430
4.5900,-0.002792,-0.009430,-0.999893,-0.003838,0.003586,-0.002547
4.6000,-0.001831,-0.009552,-0.999435,-0.004049,0.003728,-0.001676
4.6100,-0.001770,-0.009018,-0.999176,-0.001955,0.003077,-0.002210
4.6200,-0.001495,-0.008972,-0.999573,-0.002889,0.005600,-0.002986
4.6300,-0.001709,-0.009445,-0.999756,-0.003324,0.004216,-0.000300
4.6400,-0.002838,-0.010803,-0.998383,-0.004057,0.003434,-0.003770
4.6500,-0.001694,-0.010513,-0.998611,-0.003272,0.004440,-0.001924
4.6600,-0.001389,-0.009964,-0.998474,-0.002817,0.004037,-0.002719
4.6700,-0.001831,-0.010574,-0.999313,-0.003568,0.004178,-0.002159
4.6800,-0.001831,-0.010849,-0.999191,-0.002901,0.004348,-0.002407
4.6900,-0.002945,-0.010025,-0.999603,-0.002528,0.003783,-0.002905
4.7000,-0.003708,-0.010284,-0.998993,-0.001234,0.003955,-0.003164
4.7100,-0.002228,-0.009766,-0.999069,-0.003113,0.003774,-0.002720
4.7200,-0.001007,-0.009567,-0.998550,-0.003286,0.003609,-0.003620
4.7300,-0.002472,-0.010452,-1.000275,-0.003701,0.002565,-0.000968
4.7400,-0.001053,-0.010483,-0.999634,-0.002790,0.003625,-0.001915
4.7500,-0.001526,-0.010300,-0.999176,-0.002755,0.003642,-0.001987
4.7600,-0.003052,-0.010345,-0.998734,-0.003061,0.004712,-0.000817
4.7700,-0.003387,-0.009323,-0.999649,-0.004111,0.003954,-0.002957
4.7800,-0.001938,-0.009430,-0.999847,-0.003539,0.004471,-0.001501
4.7900,-0.002502,-0.010422,-1.000671,-0.002472,0.003351,-0.001829
4.8000,-0.001678,-0.010040,-1.000717,-0.003243,0.004179,-0.002685
4.8100,-0.001495,-0.010406,-1.000259,-0.002984,0.003346,-0.002700
4.8200,-0.001923,-0.010391,-0.999908,-0.002323,0.002370,-0.002195
4.8300,-0.002441,-0.010147,-0.999756,-0.002736,0.002465,-0.001070
4.8400,-0.002457,-0.010101,-0.999634,-0.002756,0.004581,-0.001795
4.8500,-0.002121,-0.010452,-0.999893,-0.002685,0.004508,-0.000162
4.8600,-0.002991,-0.010605,-0.999466,-0.001921,0.003800,-0.003092
4.8700,-0.001282,-0.010590,-0.999847,-0.002688,0.004397,-0.001523
4.8800,-0.001312,-0.010880,-1.000687,-0.003471,0.004312,-0.001608
4.8900,-0.002243,-0.010086,-0.999619,-0.002632,0.003367,-0.000758
4.9000,-0.002426,-0.009476,-1.000015,-0.002811,0.004288,-0.001018
4.9100,-0.002548,-0.010178,-1.000061,-0.003033,0.005038,-0.001443
4.9200,-0.002121,-0.010422,-0.999237,-0.001562,0.004936,-0.001055
4.9300,-0.002045,-0.009201,-0.999542,-0.002866,0.003376,-0.001121
4.9400,-0.001266,-0.010620,-1.000977,-0.003575,0.002476,-0.001790
4.9500,-0.001923,-0.010620,-0.999878,-0.003204,0.003748,-0.002317
4.9600,-0.001373,-0.009369,-0.998871,-0.002305,0.003785,-0.002313
4.9700,-0.002625,-0.010483,-0.999863,-0.002925,0.004090,-0.003176
4.9800,-0.002197,-0.009537,-0.998428,-0.002287,0.003991,-0.002742
4.9900,-0.002853,-0.010590,-0.998932,-0.002426,0.004743,-0.002788
5.0000,-0.001480,-0.009750,-0.998886,-0.003088,0.004037,-0.002272
5.0100,-0.002563,-0.009735,-0.999023,-0.004025,0.003396,-0.000675
5.0200,-0.002945,-0.009644,-0.999435,-0.003627,0.003785,0.000035
5.0300,-0.001907,-0.009201,-0.999908,-0.002857,0.003332,-0.002124
5.0400,-0.002518,-0.009399,-1.000214,-0.002757,0.002630,-0.001623
5.0500,-0.001556,-0.010620,-1.000122,-0.000953,0.004214,-0.002487
5.0600,-0.001129,-0.009354,-0.998001,-0.002059,0.003842,0.000132
5.0700,-0.001999,-0.010712,-0.999893,-0.002260,0.004162,-0.001701
5.0800,-0.001114,-0.009674,-0.999985,-0.003012,0.004130,-0.001939
5.0900,-0.002670,-0.010834,-1.000977,-0.002276,0.005201,-0.000159
5.1000,-0.001358,-0.010406,-1.000076,-0.002996,0.004488,-0.001918
5.1100,-0.001984,-0.009827,-1.000244,-0.002581,0.003660,-0.001313
5.1200,-0.002335,-0.010315,-0.999939,-0.003006,0.003576,-0.000255
5.1300,-0.001709,-0.010239,-1.000198,-0.002439,0.003858,-0.002124
5.1400,-0.002396,-0.010574,-0.999039,-0.002319,0.003587,-0.001849
5.1500,-0.002228,-0.010818,-0.999619,-0.001772,0.003248,-0.001231
5.1600,-0.001572,-0.010498,-1.000214,-0.001824,0.002942,-0.001622
5.1700,-0.000992,-0.010284,-0.999390,-0.002511,0.002866,-0.001563
5.1800,-0.000595,-0.009720,-0.999557,-0.002886,0.002303,-0.001338
5.1900,-0.001709,-0.010437,-0.999603,-0.004166,0.003110,-0.001939
5.2000,-0.002090,-0.009415,-0.998459,-0.003198,0.003956,-0.001360
5.2100,-0.001251,-0.010574,-1.000290,-0.003323,0.003107,-0.000598
5.2200,-0.002441,-0.010818,-0.999832,-0.003840,0.004443,-0.003228
5.2300,-0.001984,-0.010941,-0.999054,-0.002192,0.002698,-0.000358
5.2400,-0.002686,-0.011017,-0.998596,-0.003255,0.003977,-0.000474
5.2500,-0.002274,-0.009583,-0.999680,-0.001772,0.004025,-0.000569
5.2600,-0.002075,-0.009262,-0.999054,-0.002747,0.003759,-0.000905
5.2700,-0.002075,-0.010117,-0.999603,-0.003088,0.002728,-0.001718
5.2800,-0.001694,-0.011017,-0.999741,-0.003718,0.003038,-0.001074
5.2900,-0.001938,-0.009369,-0.999542,-0.003478,0.003021,-0.002000
5.3000,-0.000870,-0.010162,-1.000183,-0.003914,0.003542,-0.000448
5.3100,-0.001602,-0.010864,-1.000732,-0.003236,0.004420,-0.003434
5.3200,-0.001862,-0.010742,-1.001083,-0.002774,0.003336,-0.001565
5.3300,-0.001770,-0.009491,-0.999710,-0.001350,0.002481,-0.001059
5.3400,-0.001007,-0.010193,-0.999634,-0.002738,0.004587,-0.001504
5.3500,-0.001816,-0.008301,-0.999603,-0.002712,0.003701,-0.003400
5.3600,-0.001450,-0.010895,-0.998764,-0.002833,0.002660,-0.001796
5.3700,-0.002014,-0.011627,-0.998703,-0.003192,0.004245,-0.001730
5.3800,-0.002487,-0.009933,-0.998947,-0.002521,0.003831,-0.001841
5.3900,-0.001907,-0.009689,-1.000290,-0.004621,0.004231,-0.000291
5.4000,-0.001755,-0.009888,-0.999786,-0.002899,0.003649,-0.000549
5.4100,-0.001511,-0.010712,-0.999298,-0.001227,0.005502,-0.002884
5.4200,-0.001648,-0.008911,-0.999481,-0.002417,0.004424,-0.002627
5.4300,-0.002426,-0.009888,-0.999268,-0.002698,0.003797,-0.001357
5.4400,-0.001831,-0.009079,-0.998337,-0.003336,0.004056,-0.001800
5.4500,-0.000809,-0.010330,-0.999451,-0.003901,0.004291,-0.001667
5.4600,-0.002121,-0.009216,-0.999725,-0.003884,0.002267,-0.000951
5.4700,-0.001694,-0.009674,-0.999222,-0.002696,0.002652,-0.001322
5.4800,-0.001846,-0.009949,-1.000046,-0.002579,0.003037,-0.001621
5.4900,-0.000900,-0.010010,-0.999298,-0.002672,0.002055,-0.002363
5.5000,-0.002472,-0.009796,-0.999207,-0.002386,0.005819,-0.001446
5.5100,-0.001526,-0.008865,-0.999786,-0.003752,0.003864,-0.003200
5.5200,-0.000992,-0.012512,-0.999161,-0.002410,0.002539,-0.000222
5.5300,-0.002319,-0.009659,-1.000015,-0.004123,0.003480,-0.001136
5.5400,-0.002762,-0.009171,-1.000092,-0.003433,0.003748,-0.000906
5.5500,-0.001160,-0.009277,-0.999741,-0.001809,0.002280,-0.003987
5.5600,-0.002716,-0.010223,-1.000351,-0.003581,0.004367,-0.003278
5.5700,-0.002869,-0.009842,-0.998459,-0.002641,0.002932,-0.004882
5.5800,-0.003128,-0.009964,-0.999786,-0.002884,0.003495,-0.003084
5.5900,-0.001785,-0.010117,-0.999969,-0.003016,0.003180,-0.000940
5.6000,-0.001740,-0.010437,-0.999405,-0.003229,0.005148,-0.000602
5.6100,-0.002777,-0.010376,-0.999924,-0.002480,0.005177,-0.000868
5.6200,-0.002167,-0.010529,-0.999329,-0.003271,0.004311,-0.002574
5.6300,-0.002151,-0.010254,-0.998901,-0.002820,0.003657,-0.001682
5.6400,-0.003555,-0.012192,-0.999588,-0.003523,0.003083,-0.001478
5.6500,-0.001862,-0.010605,-1.000000,-0.003924,0.003528,-0.001546
5.6600,-0.001968,-0.010361,-1.001251,-0.003154,0.004270,-0.001388
5.6700,-0.001419,-0.009506,-1.000931,-0.004600,0.002805,0.000175
5.6800,-0.000427,-0.009125,-1.000366,-0.002251,0.002949,-0.003161
5.6900,-0.001068,-0.009918,-0.999191,-0.003637,0.003413,-0.001917
5.7000,-0.002426,-0.010330,-1.000549,-0.001780,0.003410,-0.000534
5.7100,-0.002731,-0.009415,-0.999191,-0.004210,0.003281,-0.000896
5.7200,-0.001404,-0.009979,-0.999634,-0.002754,0.003525,-0.001127
5.7300,-0.001297,-0.009537,-0.999374,-0.002785,0.004900,-0.002885
5.7400,-0.002304,-0.009415,-0.999512,-0.003242,0.002807,-0.001782
5.7500,-0.001099,-0.009064,-0.998505,-0.002592,0.003168,-0.003759
5.7600,-0.001968,-0.011200,-0.999847,-0.002183,0.002784,-0.002138
5.7700,-0.000885,-0.011185,-0.998657,-0.004306,0.005097,-0.002586
5.7800,-0.002487,-0.010468,-0.998672,-0.003165,0.003173,-0.001129
5.7900,-0.001755,-0.011185,-0.998779,-0.003906,0.003066,-0.002234
5.8000,-0.002808,-0.009842,-0.998383,-0.002577,0.002998,-0.002218
5.8100,-0.001450,-0.009796,-0.998795,-0.003114,0.003731,-0.002271
5.8200,-0.000504,-0.010269,-0.999878,-0.003863,0.006087,-0.002259
5.8300,-0.001465,-0.010132,-0.999252,-0.002369,0.003747,-0.001435
5.8400,-0.002365,-0.009735,-0.998077,-0.002379,0.002572,-0.001704
5.8500,-0.001755,-0.010529,-0.999023,-0.003082,0.003865,-0.003048
5.8600,-0.001877,-0.010025,-0.999130,-0.002484,0.002723,-0.002204
5.8700,-0.002090,-0.009476,-0.998352,-0.003277,0.002020,-0.000330
5.8800,-0.002304,-0.011154,-0.999054,-0.003148,0.002827,-0.003481
5.8900,-0.001526,-0.010071,-1.000061,-0.002870,0.003417,-0.000814
5.9000,-0.001068,-0.010071,-0.999649,-0.002468,0.004412,-0.001643
5.9100,-0.002930,-0.010696,-0.999054,-0.004236,0.003395,-0.001708
5.9200,-0.002106,-0.009949,-0.998993,-0.003584,0.003197,-0.002006
5.9300,-0.002426,-0.009659,-1.001160,-0.003734,0.002874,-0.001414
5.9400,-0.002716,-0.010132,-1.000656,-0.002690,0.004882,-0.001619
5.9500,-0.001144,-0.009216,-0.999268,-0.002689,0.003372,-0.000373
5.9600,-0.001709,-0.009109,-1.000961,-0.004526,0.003508,-0.001391
5.9700,-0.001465,-0.010590,-0.999664,-0.002299,0.003832,-0.001678
5.9800,-0.001968,-0.010086,-0.999603,-0.001107,0.003506,-0.002406
5.9900,-0.000977,-0.010590,-0.998672,-0.002655,0.003466,-0.001130
6.0000,-0.001450,-0.010620,-1.000580,-0.003828,0.003667,-0.001978
6.0100,-0.002304,-0.010300,-1.000626,-0.004426,0.004057,-0.002118
6.0200,-0.001984,-0.010651,-0.998703,-0.003478,0.004092,-0.001699
6.0300,-0.002045,-0.009033,-1.000168,-0.003271,0.003089,-0.000154
6.0400,-0.003021,-0.009827,-1.001541,-0.002598,0.003066,-0.002099
6.0500,-0.001877,-0.009933,-1.000122,-0.002656,0.004173,-0.001884
6.0600,-0.001587,-0.009903,-0.999527,-0.003616,0.003328,-0.002593
6.0700,-0.002609,-0.009079,-0.998520,-0.001846,0.004095,-0.002188
6.0800,-0.002579,-0.010101,-0.999496,-0.003296,0.004096,-0.001965
6.0900,-0.001892,-0.010178,-0.998734,-0.002794,0.003336,-0.001587
6.1000,-0.002991,-0.011093,-0.999268,-0.002651,0.002482,-0.002464
6.1100,-0.001495,-0.010132,-0.999634,-0.001696,0.004911,-0.000938
6.1200,-0.001877,-0.009094,-0.999191,-0.003758,0.003583,0.000127
6.1300,-0.001846,-0.008987,-0.999710,-0.005103,0.004040,-0.001409
6.1400,-0.001343,-0.009460,-1.001099,-0.003859,0.003255,-0.003314
6.1500,-0.001846,-0.009628,-0.999802,-0.003681,0.003917,-0.001116
6.1600,-0.001236,-0.010010,-0.999573,-0.002451,0.003444,-0.002879
6.1700,-0.000961,-0.010712,-0.998383,-0.003884,0.003431,-0.001994
6.1800,-0.001740,-0.009247,-1.000336,-0.001932,0.003766,-0.002529
6.1900,-0.002686,-0.009521,-0.999268,-0.002468,0.002386,-0.001477
6.2000,-0.002457,-0.009720,-1.000168,-0.003154,0.004361,-0.002244
6.2100,-0.001984,-0.009705,-0.999283,-0.005348,0.003586,-0.000595
6.2200,-0.002274,-0.010422,-1.000092,-0.002837,0.002854,-0.002836
6.2300,-0.003555,-0.009415,-0.998886,-0.002992,0.004233,-0.001938
6.2400,-0.002869,-0.011215,-0.998810,-0.003838,0.004166,-0.000023
6.2500,-0.002777,-0.010223,-0.999557,-0.002447,0.005083,0.000405
6.2600,-0.002380,-0.008530,-0.998444,-0.003203,0.002436,-0.003017
6.2700,-0.002182,-0.010483,-1.000076,-0.002960,0.003618,-0.002710
6.2800,-0.001862,-0.010452,-0.999420,-0.002660,0.002923,-0.002233
6.2900,-0.001862,-0.009781,-0.999817,-0.003459,0.003311,-0.001119
6.3000,-0.001724,-0.009598,-0.999023,-0.000956,0.004652,-0.002807
6.3100,-0.001740,-0.010605,-0.999603,-0.002528,0.004077,-0.001709
6.3200,-0.001968,-0.009872,-0.999298,-0.002556,0.004087,-0.001821
6.3300,-0.002609,-0.011108,-0.998581,-0.003376,0.005451,-0.002401
6.3400,-0.002106,-0.009003,-1.000000,-0.003079,0.004145,0.000312
6.3500,-0.001694,-0.009644,-0.999207,-0.002341,0.004481,-0.000891
6.3600,-0.001907,-0.010330,-1.000183,-0.003534,0.004637,-0.002502
6.3700,-0.001907,-0.011902,-0.998779,-0.002829,0.003457,-0.001648
6.3800,-0.003036,-0.010025,-0.998718,-0.003131,0.002003,-0.000986
6.3900,-0.002228,-0.009689,-0.999725,-0.000940,0.004945,-0.001215
6.4000,-0.001312,-0.010773,-0.999527,-0.003714,0.002604,-0.002237
6.4100,-0.003098,-0.009277,-0.999130,-0.003565,0.003263,0.000333
6.4200,-0.001663,-0.009674,-0.998764,-0.002641,0.003803,-0.003378
6.4300,-0.002228,-0.011841,-0.999161,-0.002898,0.003150,-0.001746
6.4400,-0.002823,-0.010941,-0.998459,-0.002557,0.004822,-0.002624
6.4500,-0.001999,-0.010101,-0.999069,-0.002909,0.004656,-0.002868
6.4600,-0.001968,-0.009918,-0.999222,-0.001184,0.003680,-0.002005
6.4700,-0.002853,-0.009583,-1.000809,-0.005794,0.004990,-0.002482
6.4800,-0.000748,-0.010208,-1.000412,-0.002450,0.003798,-0.000103
6.4900,-0.001312,-0.010712,-0.999466,-0.002432,0.004317,-0.000143
6.5000,-0.002426,-0.010391,-0.999771,-0.003478,0.004149,-0.003227
6.5100,-0.001678,-0.010284,-0.997940,-0.004114,0.005315,-0.000314
6.5200,-0.001465,-0.010696,-0.999390,-0.003690,0.004037,-0.000316
6.5300,-0.002457,-0.010101,-1.000656,-0.002380,0.003600,-0.002299
6.5400,-0.001282,-0.009842,-1.000458,-0.002091,0.002773,-0.001681
6.5500,-0.002075,-0.010742,-0.999939,-0.002985,0.003635,-0.002479
6.5600,-0.001343,-0.009460,-0.999039,-0.002714,0.001930,-0.000319
6.5700,-0.001205,-0.009842,-0.999649,-0.002920,0.003749,-0.000496
6.5800,-0.001923,-0.010757,-1.000092,-0.003418,0.003913,-0.001781
6.5900,-0.001678,-0.010452,-1.000427,-0.002561,0.004092,-0.001067
6.6000,-0.001678,-0.010513,-0.999359,-0.003688,0.005611,-0.001088
6.6100,-0.001480,-0.010437,-1.000092,-0.002857,0.002589,0.000023
6.6200,-0.001678,-0.009995,-0.999741,-0.002988,0.004659,-0.001337
6.6300,-0.001511,-0.009827,-0.999786,-0.003218,0.003926,-0.000646
6.6400,-0.001175,-0.009552,-0.999939,-0.003421,0.003252,-0.002142
6.6500,-0.002090,-0.009781,-1.000473,-0.002597,0.003736,-0.002233
6.6600,-0.001999,-0.010727,-1.000015,-0.002964,0.005092,-0.002108
6.6700,-0.002655,-0.010239,-0.998917,-0.002985,0.003416,-0.005014
6.6800,-0.002792,-0.009628,-0.998917,-0.003501,0.004959,-0.001368
6.6900,-0.001556,-0.008820,-0.999115,-0.002568,0.002994,-0.003222
6.7000,-0.002655,-0.010483,-0.999268,-0.002395,0.003008,-0.003046
6.7100,-0.002594,-0.009293,-1.000717,-0.002627,0.004901,-0.002998
6.7200,-0.001892,-0.009933,-1.000458,-0.000756,0.003914,-0.002070
6.7300,-0.001358,-0.010773,-0.999817,-0.003844,0.004349,-0.000880
6.7400,-0.000870,-0.011017,-1.000046,-0.001402,0.004596,-0.000799
6.7500,-0.002304,-0.010864,-0.999451,-0.003047,0.004341,-0.002434
6.7600,-0.003815,-0.011948,-1.000168,-0.004016,0.003698,-0.000676
6.7700,-0.001923,-0.010529,-0.999512,-0.003113,0.002894,-0.001831
6.7800,-0.001419,-0.009445,-0.999176,-0.003888,0.003409,-0.002252
6.7900,-0.002716,-0.010010,-0.999405,-0.004368,0.004144,-0.000857
6.8000,-0.002548,-0.010513,-0.999207,-0.002945,0.003480,-0.001202
6.8100,-0.001648,-0.008804,-0.999176,-0.003965,0.002689,-0.002423
6.8200,-0.002335,-0.010376,-0.999100,-0.003550,0.002902,-0.002447
6.8300,-0.002350,-0.011215,-0.999146,-0.002581,0.003813,-0.003248
6.8400,-0.002594,-0.010712,-0.998505,-0.003908,0.004422,-0.003238
6.8500,-0.001617,-0.010361,-0.999939,-0.002986,0.003850,-0.001676
6.8600,-0.001602,-0.010681,-1.000076,-0.004257,0.003947,-0.001510
6.8700,-0.002457,-0.010086,-0.998810,-0.002150,0.004062,-0.003383
6.8800,-0.002197,-0.010468,-0.999329,-0.002476,0.002973,-0.000842
6.8900,-0.001663,-0.010986,-0.999420,-0.002956,0.002838,-0.001893
6.9000,-0.001846,-0.010056,-1.000000,-0.003338,0.004423,-0.003472
6.9100,-0.001129,-0.009171,-1.000107,-0.002578,0.002009,-0.002590
6.9200,-0.002411,-0.009323,-0.999969,-0.004462,0.004996,-0.001902
6.9300,-0.001587,-0.009308,-1.000366,-0.004124,0.005177,-0.002447
6.9400,-0.001709,-0.009903,-0.999451,-0.002127,0.005209,-0.001827
6.9500,-0.001495,-0.010925,-0.999542,-0.003488,0.004943,-0.001682
6.9600,-0.001831,-0.010117,-0.998642,-0.003489,0.004450,-0.002783
6.9700,-0.002441,-0.011566,-0.999725,-0.002575,0.004221,-0.002433
6.9800,-0.001602,-0.011063,-1.000107,-0.003263,0.004707,-0.002469
6.9900,-0.003052,-0.009476,-0.998642,-0.003262,0.003701,-0.002504
7.0000,-0.001724,-0.008865,-0.999023,-0.004001,0.003731,-0.000553
7.0100,-0.001694,-0.010208,-0.999741,-0.003125,0.004298,-0.002782
7.0200,-0.002182,-0.008850,-0.998016,-0.003909,0.004627,-0.001796
7.0300,-0.002426,-0.009323,-0.998917,-0.002425,0.002687,-0.002233
7.0400,-0.002594,-0.010025,-1.000473,-0.002663,0.003236,-0.001241
7.0500,-0.001724,-0.009460,-1.000198,-0.003343,0.003525,-0.001900
7.0600,-0.002213,-0.010788,-0.999023,-0.003971,0.004595,-0.000827
7.0700,-0.001907,-0.009079,-0.999390,-0.002544,0.003158,-0.002403
7.0800,-0.000946,-0.009872,-1.000397,-0.001693,0.003269,-0.001752
7.0900,-0.001968,-0.010117,-1.000153,-0.002963,0.003259,-0.002200
7.1000,-0.001480,-0.010025,-0.998352,-0.003047,0.004248,-0.000834
7.1100,-0.002106,-0.010956,-0.998917,-0.003516,0.002777,-0.002605
7.1200,-0.002304,-0.010361,-0.999268,-0.003058,0.003373,-0.001874
7.1300,-0.000916,-0.008987,-0.998535,-0.002602,0.002486,-0.001667
7.1400,-0.001953,-0.010330,-0.999893,-0.003320,0.004401,-0.001353
7.1500,-0.003387,-0.010590,-0.999191,-0.002627,0.004839,-0.001673
7.1600,-0.003036,-0.010345,-0.998978,-0.003808,0.004773,-0.002059
7.1700,-0.001633,-0.009521,-0.998245,-0.002691,0.004100,-0.003004
7.1800,-0.001450,-0.009232,-0.998520,-0.003987,0.005484,-0.000838
7.1900,-0.002487,-0.009460,-0.999496,-0.003507,0.003294,-0.002163
7.2000,-0.002686,-0.009109,-1.000809,-0.003279,0.003198,-0.002737
7.2100,-0.001358,-0.009674,-0.998474,-0.002648,0.005050,-0.002165
7.2200,-0.001709,-0.009506,-0.999939,-0.001658,0.003045,-0.001503
7.2300,-0.001678,-0.009720,-0.998840,-0.002401,0.003889,-0.004321
7.2400,-0.002121,-0.010300,-0.998978,-0.004015,0.003858,-0.000779
7.2500,-0.001785,-0.011154,-0.998703,-0.003262,0.004306,-0.002096
7.2600,-0.002106,-0.010849,-0.999390,-0.002803,0.003938,-0.002435
7.2700,-0.000946,-0.010239,-0.999802,-0.001791,0.003539,-0.000148
7.2800,-0.002487,-0.009842,-1.000290,-0.002296,0.003667,-0.001417
7.2900,-0.002060,-0.010162,-1.000366,-0.002686,0.004134,-0.001556
7.3000,-0.001526,-0.010101,-0.999008,-0.004675,0.004383,-0.001146
7.3100,-0.001648,-0.010513,-0.998718,-0.002625,0.003561,-0.002165
7.3200,-0.002075,-0.009857,-0.999237,-0.002904,0.001971,-0.001099
7.3300,-0.002197,-0.009857,-0.999527,-0.002137,0.004677,-0.003117
7.3400,-0.001266,-0.008652,-0.999969,-0.003308,0.004454,-0.001604
7.3500,-0.001541,-0.010666,-1.000092,-0.002747,0.002465,-0.002393
7.3600,-0.001770,-0.009689,-0.999588,-0.003666,0.005352,-0.000682
7.3700,-0.001465,-0.009583,-0.999863,-0.003478,0.005453,-0.000797
7.3800,-0.002335,-0.010880,-0.999069,-0.004764,0.003257,-0.000839
7.3900,-0.002228,-0.009537,-0.999817,-0.003816,0.003179,-0.001506
7.4000,-0.002106,-0.009674,-0.999741,-0.002375,0.003084,-0.001721
7.4100,-0.001343,-0.010391,-0.999619,-0.001723,0.003169,-0.000718
7.4200,-0.001846,-0.011093,-0.999573,-0.004000,0.004146,-0.000925
7.4300,-0.002090,-0.010880,-0.999893,-0.004640,0.003294,-0.001012
7.4400,-0.002625,-0.010162,-1.000305,-0.003236,0.002591,-0.003042
7.4500,-0.002350,-0.009888,-1.000244,-0.002682,0.003757,-0.001354
7.4600,-0.002319,-0.009750,-0.999191,-0.002506,0.004373,-0.001772
7.4700,-0.001633,-0.010101,-1.000198,-0.003346,0.002701,-0.002853
7.4800,-0.001617,-0.010452,-0.999298,-0.003645,0.003340,-0.003788
7.4900,-0.000229,-0.010712,-1.000107,-0.003822,0.004088,-0.002275
7.5000,-0.000931,-0.009018,-1.000565,-0.002970,0.004305,-0.000871
7.5100,-0.001846,-0.010864,-0.999756,-0.003203,0.003608,-0.001458
7.5200,-0.002808,-0.011017,-1.000671,-0.002806,0.004103,-0.002827
7.5300,-0.002487,-0.010559,-0.999161,-0.002480,0.003203,-0.002042
7.5400,-0.002136,-0.010895,-1.000443,-0.002905,0.003710,-0.001992
7.5500,-0.001266,-0.010315,-0.999466,-0.002743,0.002286,-0.001844
7.5600,-0.001740,-0.009811,-0.999832,-0.003508,0.003362,-0.000695
7.5700,-0.002319,-0.010071,-0.999725,-0.003119,0.003351,-0.001273
7.5800,-0.001083,-0.009995,-0.999954,-0.002933,0.003777,0.000242
7.5900,-0.002014,-0.010895,-1.000320,-0.001960,0.003428,-0.001954
7.6000,-0.001984,-0.009613,-0.999847,-0.004073,0.003050,-0.003781
7.6100,-0.001190,-0.010513,-1.000381,-0.003756,0.002791,-0.002337
7.6200,-0.001495,-0.009811,-0.999313,-0.003968,0.002768,-0.000794
7.6300,-0.002121,-0.010712,-1.000366,-0.002604,0.003466,-0.002320
7.6400,-0.000809,-0.009155,-1.000320,-0.003013,0.004323,-0.001417
7.6500,-0.001511,-0.011108,-0.999527,-0.002600,0.005135,-0.001826
7.6600,-0.002396,-0.010513,-1.000534,-0.002996,0.004101,-0.002403
7.6700,-0.002121,-0.011139,-1.000183,-0.003718,0.005320,-0.000408
7.6800,-0.002060,-0.009781,-0.999237,-0.003874,0.004231,-0.003259
7.6900,-0.001785,-0.009766,-0.999405,-0.004283,0.003865,-0.001388
7.7000,-0.001740,-0.010147,-1.000519,-0.003337,0.003094,-0.002461
7.7100,-0.000702,-0.010605,-0.998749,-0.003904,0.003774,-0.002010
7.7200,-0.001770,-0.010422,-0.999054,-0.002686,0.004938,-0.000481
7.7300,-0.002487,-0.009567,-0.999008,-0.003632,0.003209,-0.000695
7.7400,-0.002289,-0.010345,-1.000900,-0.002159,0.004860,-0.000822
7.7500,-0.001938,-0.010910,-0.998779,-0.003913,0.004097,-0.002484
7.7600,-0.001266,-0.011124,-0.998901,-0.001706,0.003356,-0.001224
7.7700,-0.002411,-0.010162,-0.998993,-0.005128,0.003241,-0.001433
7.7800,-0.001328,-0.010284,-1.000122,-0.002841,0.003890,-0.000099
7.7900,-0.002136,-0.009872,-1.001022,-0.003958,0.003961,-0.001390
7.8000,-0.001633,-0.010208,-0.999725,-0.003137,0.005602,-0.003114
7.8100,-0.001724,-0.010208,-0.999130,-0.002439,0.003758,-0.000391
7.8200,-0.002213,-0.010803,-0.997864,-0.001817,0.003333,-0.001182
7.8300,-0.001480,-0.008835,-0.998032,-0.003287,0.003801,-0.003432
7.8400,-0.001343,-0.009415,-0.999374,-0.003015,0.004335,-0.001005
7.8500,-0.002747,-0.010178,-0.999146,-0.002903,0.003840,-0.002192
7.8600,-0.001999,-0.008881,-0.999313,-0.003079,0.004154,-0.003004
7.8700,-0.000839,-0.010040,-0.998230,-0.002220,0.003729,-0.002476
7.8800,-0.002304,-0.009583,-0.999054,-0.002329,0.003307,-0.001660
7.8900,-0.001724,-0.010757,-0.999527,-0.002529,0.002998,-0.001980
7.9000,-0.002792,-0.010025,-0.998337,-0.005238,0.003383,-0.001729
7.9100,-0.002396,-0.010544,-0.999847,-0.002200,0.003609,-0.004138
7.9200,-0.001266,-0.010468,-0.999817,-0.004270,0.002935,0.000140
7.9300,-0.001968,-0.010208,-0.999207,-0.003660,0.003478,-0.001601
7.9400,-0.002823,-0.008926,-0.999313,-0.002570,0.002767,-0.002551
7.9500,-0.001221,-0.010651,-0.999146,-0.002136,0.003928,-0.002462
7.9600,-0.001923,-0.010544,-0.999588,-0.001938,0.003462,-0.001280
7.9700,-0.002319,-0.010757,-0.999695,-0.003544,0.003276,-0.000071
7.9800,-0.003372,-0.010559,-1.000092,-0.004218,0.004694,-0.001179
7.9900,-0.001587,-0.009964,-1.000732,-0.002624,0.003842,-0.003057
8.0000,-0.001648,-0.009918,-1.000641,-0.002502,0.004391,-0.002690
8.0100,-0.002701,-0.009720,-0.998260,-0.002856,0.003041,-0.002062
8.0200,-0.002289,-0.010330,-1.000519,-0.002731,0.003659,-0.003046
8.0300,-0.001328,-0.010941,-0.999939,-0.004604,0.003662,-0.001093
8.0400,-0.001373,-0.010223,-1.000320,-0.003556,0.003283,-0.001044
8.0500,-0.000229,-0.009613,-1.000565,-0.003944,0.003758,-0.002372
8.0600,-0.001633,-0.009933,-0.998428,-0.002867,0.004318,-0.001706
8.0700,-0.001801,-0.010315,-1.000351,-0.002013,0.003354,-0.000616
8.0800,-0.002136,-0.010529,-0.999481,-0.004558,0.003722,-0.001153
8.0900,-0.002731,-0.009842,-1.000900,-0.002504,0.004955,-0.001960
8.1000,-0.000748,-0.009659,-0.999786,-0.003521,0.002678,-0.001805
8.1100,-0.001144,-0.009949,-0.999725,-0.002183,0.003295,-0.002347
8.1200,-0.002121,-0.010117,-1.001160,-0.003714,0.003336,-0.002613
8.1300,-0.001129,-0.009506,-1.000275,-0.003194,0.004139,-0.001892
8.1400,-0.002014,-0.010620,-1.000443,-0.002660,0.002989,-0.000643
8.1500,-0.001709,-0.010590,-0.998306,-0.003691,0.003474,-0.001571
8.1600,-0.002228,-0.010422,-1.000153,-0.003179,0.005676,-0.000663
8.1700,-0.001144,-0.009995,-0.999908,-0.004482,0.002904,-0.002497
8.1800,-0.001266,-0.010300,-1.000671,-0.003195,0.003450,-0.002483
8.1900,-0.002579,-0.009354,-0.999283,-0.003811,0.002396,-0.002838
8.2000,-0.002594,-0.009048,-0.999802,-0.003105,0.004164,-0.001225
8.2100,-0.001831,-0.010147,-0.998566,-0.003014,0.001451,-0.000407
8.2200,-0.002319,-0.010239,-0.999451,-0.004254,0.002792,-0.002402
8.2300,-0.001373,-0.009384,-1.000153,-0.002287,0.002745,-0.000901
8.2400,-0.000381,-0.010803,-1.000595,-0.003789,0.003857,-0.001398
8.2500,-0.001648,-0.010620,-0.999329,-0.003995,0.003430,-0.001648
8.2600,-0.002106,-0.008591,-0.998657,-0.002980,0.003945,-0.002371
8.2700,-0.001816,-0.010956,-0.998932,-0.003037,0.003567,-0.003297
8.2800,-0.001526,-0.009232,-0.998413,-0.002128,0.002251,-0.002041
8.2900,-0.001724,-0.009384,-0.998566,-0.002858,0.004724,-0.003048
8.3000,-0.001465,-0.010956,-0.999252,-0.001708,0.003259,-0.000900
8.3100,-0.001389,-0.010269,-0.999893,-0.003255,0.003076,-0.002569
8.3200,-0.001434,-0.009521,-1.000916,-0.002185,0.004051,-0.001401
8.3300,-0.002731,-0.008987,-0.998383,-0.003769,0.004459,-0.002899
8.3400,-0.002243,-0.010025,-0.998993,-0.003748,0.004143,-0.001755
8.3500,-0.002441,-0.009781,-0.998901,-0.002026,0.003416,-0.002454
8.3600,-0.002594,-0.008713,-0.999878,-0.002628,0.004290,-0.002046
8.3700,-0.000885,-0.011017,-0.999603,-0.003607,0.003976,-0.000367
8.3800,-0.001007,-0.009125,-1.000717,-0.003291,0.003594,-0.000499
8.3900,-0.002792,-0.009872,-0.999023,-0.002825,0.004574,-0.001650
8.4000,-0.001984,-0.010849,-0.998871,-0.003926,0.002756,-0.001239
8.4100,-0.001633,-0.009811,-1.001160,-0.001803,0.003471,-0.002215
8.4200,-0.001511,-0.008865,-0.999359,-0.002334,0.004339,-0.002355
8.4300,-0.001221,-0.010635,-1.001205,-0.002618,0.003776,-0.002951
8.4400,-0.001724,-0.011139,-0.999710,-0.001683,0.004234,-0.002530
8.4500,-0.002228,-0.010269,-1.000229,-0.003205,0.003478,-0.002032
8.4600,-0.000824,-0.009735,-1.000412,-0.003149,0.002174,-0.001728
8.4700,-0.002274,-0.010254,-0.999741,-0.003824,0.003419,-0.001900
8.4800,-0.001373,-0.009644,-1.000305,-0.002745,0.003947,-0.001073
8.4900,-0.001389,-0.009537,-0.999695,-0.002960,0.002818,-0.001197
8.5000,-0.001373,-0.009903,-1.000656,-0.003869,0.002545,-0.002509
8.5100,-0.000458,-0.010818,-0.999191,-0.001868,0.003626,-0.001687
8.5200,-0.001999,-0.009735,-0.999298,-0.003444,0.002704,-0.002502
8.5300,-0.002518,-0.010315,-1.001022,-0.003579,0.003142,-0.001349
8.5400,-0.002136,-0.010941,-0.998764,-0.003319,0.003874,-0.002652
8.5500,-0.001694,-0.010513,-1.000717,-0.002353,0.002656,-0.000564
8.5600,-0.003036,-0.010605,-1.000320,-0.001872,0.004522,-0.000500
8.5700,-0.003372,-0.009949,-0.999298,-0.003598,0.003054,-0.002846
8.5800,-0.002472,-0.010025,-0.999710,-0.003228,0.003039,-0.000028
8.5900,-0.001404,-0.009338,-0.999329,-0.002729,0.004107,-0.002452
8.6000,-0.001511,-0.010559,-0.999313,-0.003196,0.003679,-0.003028
8.6100,-0.001251,-0.010300,-1.000275,-0.003931,0.003489,-0.001439
8.6200,-0.003433,-0.010590,-0.998367,-0.002758,0.002915,-0.002021
8.6300,-0.002594,-0.009323,-0.999893,-0.002326,0.002976,-0.003194
8.6400,-0.002029,-0.009415,-0.998886,-0.001170,0.004139,-0.001580
8.6500,-0.000626,-0.010696,-0.998505,-0.003632,0.004550,-0.000413
8.6600,-0.002304,-0.010635,-0.999069,-0.002630,0.003523,-0.003153
8.6700,-0.002762,-0.009918,-0.998108,-0.003331,0.004353,-0.001902
8.6800,-0.002884,-0.010315,-0.999252,-0.003167,0.003192,-0.000777
8.6900,-0.000992,-0.010284,-0.998993,-0.002167,0.004801,-0.002217
8.7000,-0.000824,-0.010880,-1.000687,-0.003327,0.003603,-0.003127
8.7100,-0.002609,-0.009781,-1.000412,-0.002157,0.003766,-0.003371
8.7200,-0.001434,-0.010529,-1.000397,-0.002789,0.002359,-0.002087
8.7300,-0.002960,-0.010284,-0.998657,-0.003201,0.002402,-0.001287
8.7400,-0.000427,-0.009781,-0.999512,-0.001673,0.004701,-0.002540
8.7500,-0.002182,-0.010437,-0.999512,-0.003117,0.002965,-0.001882
8.7600,-0.002380,-0.010712,-0.999756,-0.003501,0.003727,-0.003985
8.7700,-0.000916,-0.010544,-1.000076,-0.002230,0.003481,-0.002626
8.7800,-0.002365,-0.010864,-0.999542,-0.003010,0.003301,-0.002512
8.7900,-0.001022,-0.010345,-0.998566,-0.003749,0.003639,-0.001224
8.8000,-0.001877,-0.010559,-0.999847,-0.002276,0.002925,-0.001315
8.8100,-0.002472,-0.010864,-1.000580,-0.002875,0.003536,-0.003004
8.8200,-0.002518,-0.009201,-0.999939,-0.003049,0.003816,-0.000916
8.8300,-0.002289,-0.010239,-1.000717,-0.003737,0.003266,-0.001175
8.8400,-0.002045,-0.009811,-1.000320,-0.003349,0.004452,-0.002560
8.8500,-0.002396,-0.010391,-1.000381,-0.003721,0.002212,-0.001576
8.8600,-0.001724,-0.009384,-1.001328,-0.002405,0.005596,-0.000734
8.8700,-0.002090,-0.009583,-1.000305,-0.004467,0.003717,-0.000555
8.8800,-0.001541,-0.010208,-0.999695,-0.003208,0.002191,-0.002112
8.8900,-0.002289,-0.009613,-0.998993,-0.003764,0.004973,-0.000764
8.9000,-0.002441,-0.009796,-0.999191,-0.004438,0.003637,-0.003339
8.9100,-0.001816,-0.010849,-0.999252,-0.003232,0.003912,-0.003791
8.9200,-0.002289,-0.010147,-1.001343,-0.002969,0.002386,-0.003073
8.9300,-0.003433,-0.010681,-0.999649,-0.003656,0.003006,-0.000819
8.9400,-0.002625,-0.010330,-0.999741,-0.002798,0.003545,-0.001010
8.9500,-0.000977,-0.008591,-0.999313,-0.002978,0.002939,-0.002339
8.9600,-0.001312,-0.009155,-0.999680,-0.002478,0.002622,-0.001156
8.9700,-0.001129,-0.010452,-0.999832,-0.002143,0.003417,0.000715
8.9800,-0.001999,-0.011078,-1.000305,-0.002923,0.002665,-0.002461
8.9900,-0.002197,-0.009537,-1.000031,-0.004168,0.003517,-0.000231
9.0000,-0.001587,-0.010895,-0.999893,-0.003490,0.005241,-0.002757
9.0100,-0.001892,-0.010635,-0.999695,-0.004085,0.005206,-0.002752
9.0200,-0.000870,-0.010971,-1.000183,-0.002549,0.003457,-0.001267
9.0300,-0.001404,-0.011398,-0.999039,-0.003361,0.003991,-0.002376
9.0400,-0.001938,-0.009933,-0.998962,-0.003483,0.004718,-0.001233
9.0500,-0.002213,-0.010391,-0.998871,-0.003663,0.003738,-0.000366
9.0600,-0.001099,-0.009857,-0.999557,-0.002271,0.002762,-0.001047
9.0700,-0.001938,-0.010590,-0.998932,-0.004082,0.002631,-0.001411
9.0800,-0.002151,-0.011185,-0.999146,-0.003921,0.003783,-0.002028
9.0900,-0.000931,-0.009323,-0.998245,-0.002451,0.003577,-0.002000
9.1000,-0.002426,-0.009949,-0.999023,-0.001283,0.001408,-0.002394
9.1100,-0.001801,-0.010651,-1.000244,-0.003173,0.003651,-0.001320
9.1200,-0.002823,-0.009033,-1.000534,-0.002817,0.004000,-0.002067
9.1300,-0.001114,-0.009460,-1.000351,-0.004594,0.003392,-0.002932
9.1400,-0.001633,-0.010239,-0.998535,-0.003552,0.004165,-0.003381
9.1500,-0.001114,-0.008606,-0.999069,-0.002888,0.001945,-0.003456
9.1600,-0.001740,-0.010040,-0.998993,-0.004597,0.004230,-0.003674
9.1700,-0.002914,-0.010452,-0.999847,-0.003160,0.003592,-0.002074
9.1800,-0.002625,-0.008438,-0.999176,-0.002988,0.004199,-0.002582
9.1900,-0.002106,-0.010284,-0.999680,-0.002978,0.004677,-0.000847
9.2000,-0.002182,-0.010437,-0.998962,-0.002756,0.003623,0.000215
9.2100,-0.002747,-0.010727,-1.000244,-0.003104,0.004067,-0.002820
9.2200,-0.001938,-0.010437,-0.999191,-0.002816,0.003702,-0.001765
9.2300,-0.001801,-0.010605,-0.999390,-0.003690,0.003036,-0.003122
9.2400,-0.002121,-0.009842,-0.998459,-0.004031,0.004655,-0.000666
9.2500,-0.000778,-0.009872,-0.998199,-0.002967,0.003125,-0.001168
9.2600,-0.000565,-0.010941,-1.000351,-0.004256,0.002226,-0.000610
9.2700,-0.001389,-0.010269,-0.998795,-0.003573,0.003492,-0.001282
9.2800,-0.002731,-0.011017,-1.000351,-0.004124,0.003177,-0.001193
9.2900,-0.002838,-0.010803,-1.000305,-0.003553,0.003743,-0.002361
9.3000,-0.001816,-0.010254,-0.999161,-0.002142,0.004082,-0.003163
9.3100,-0.002533,-0.011032,-0.997772,-0.002793,0.002916,-0.003623
9.3200,-0.001892,-0.008621,-0.999115,-0.003572,0.004499,-0.001092
9.3300,-0.001816,-0.010605,-1.000076,-0.002299,0.003671,-0.000435
9.3400,-0.003296,-0.010574,-1.000031,-0.003384,0.004127,-0.000373
9.3500,-0.001617,-0.010208,-1.000534,-0.003238,0.003231,-0.002929
9.3600,-0.002258,-0.010712,-0.999695,-0.003601,0.003945,-0.002546
9.3700,-0.001801,-0.009781,-0.999313,-0.003184,0.004972,-0.003330
9.3800,-0.002502,-0.010483,-0.999847,-0.003771,0.003734,-0.003049
9.3900,-0.001999,-0.008972,-1.000153,-0.002834,0.003834,-0.003117
9.4000,-0.002518,-0.010178,-1.001007,-0.000923,0.003847,0.000496
9.4100,-0.002258,-0.010590,-1.000732,-0.003249,0.004289,-0.001095
9.4200,-0.001968,-0.009567,-1.000397,-0.003026,0.005029,-0.002590
9.4300,-0.001419,-0.010651,-1.000961,-0.003726,0.004256,-0.001650
9.4400,-0.002716,-0.010406,-0.998932,-0.002906,0.004557,-0.002848
9.4500,-0.004089,-0.010590,-1.000732,-0.001967,0.002592,0.000170
9.4600,-0.003418,-0.009430,-0.998566,-0.003677,0.004652,-0.002162
9.4700,-0.001862,-0.009598,-0.999207,-0.002562,0.003075,-0.003541
9.4800,-0.001144,-0.010132,-0.999863,-0.003078,0.004532,-0.003235
9.4900,-0.001389,-0.009766,-0.998886,-0.003451,0.003052,-0.001605
9.5000,-0.002075,-0.009857,-0.998978,-0.002320,0.005142,-0.001504
9.5100,-0.002121,-0.010529,-0.999466,-0.003172,0.004199,-0.000789
9.5200,-0.002289,-0.009995,-0.999710,-0.003198,0.003186,-0.003155
9.5300,-0.001007,-0.010330,-1.000488,-0.004241,0.002838,-0.002276
9.5400,-0.002960,-0.009888,-0.999252,-0.003591,0.002536,-0.001815
9.5500,-0.002167,-0.010712,-0.999420,-0.002160,0.001808,-0.000797
9.5600,-0.001526,-0.009827,-0.999832,-0.003344,0.003708,-0.003184
9.5700,-0.001892,-0.009628,-0.999527,-0.002850,0.005387,-0.000226
9.5800,-0.002167,-0.010712,-0.999786,-0.004009,0.004821,-0.001086
9.5900,-0.001862,-0.009766,-0.998871,-0.002435,0.002997,-0.000524
9.6000,-0.002838,-0.008911,-0.999283,-0.003714,0.003918,-0.000307
9.6100,-0.001617,-0.009140,-0.999313,-0.003960,0.003777,-0.003618
9.6200,-0.001373,-0.009827,-0.999222,-0.003669,0.003545,-0.002149
9.6300,-0.001907,-0.010162,-0.998962,-0.002838,0.002556,-0.000665
9.6400,-0.002213,-0.009476,-0.999222,-0.002511,0.003422,-0.002249
9.6500,-0.001877,-0.010223,-0.999924,-0.003239,0.002733,-0.002302
9.6600,-0.000946,-0.009750,-1.000290,-0.003828,0.003539,-0.002366
9.6700,-0.002380,-0.011124,-0.999863,-0.004666,0.002741,-0.002539
9.6800,-0.002029,-0.010269,-0.999588,-0.003431,0.004228,-0.002692
9.6900,-0.001816,-0.010498,-0.999527,-0.002266,0.003138,0.000862
9.7000,-0.002609,-0.010468,-0.999512,-0.002417,0.003671,-0.002336
9.7100,-0.002197,-0.009857,-0.999268,-0.003216,0.003419,-0.000463
9.7200,-0.001556,-0.009842,-1.000183,-0.002232,0.004737,-0.000757
9.7300,-0.003464,-0.010880,-0.999786,-0.002413,0.003950,-0.001468
9.7400,-0.001282,-0.011002,-0.999756,-0.004420,0.003992,-0.001388
9.7500,-0.001511,-0.010132,-0.999695,-0.003661,0.004155,-0.001327
9.7600,-0.001953,-0.010513,-0.999908,-0.002934,0.003611,-0.002994
9.7700,-0.002274,-0.010391,-0.999191,-0.002703,0.003404,-0.001612
9.7800,-0.001785,-0.010376,-1.000031,-0.003757,0.004703,-0.002903
9.7900,-0.002060,-0.010010,-0.999969,-0.004368,0.003165,-0.000330
9.8000,-0.002365,-0.010239,-0.999817,-0.003000,0.003214,-0.000819
9.8100,-0.002533,-0.010956,-1.000427,-0.002614,0.003815,-0.001660
9.8200,-0.002335,-0.010513,-0.999512,-0.002665,0.004191,-0.001520
9.8300,-0.001358,-0.010574,-0.999069,-0.003153,0.003214,-0.002694
9.8400,-0.001938,-0.010696,-1.000046,-0.002869,0.003781,-0.000932
9.8500,-0.001694,-0.011200,-1.000214,-0.002648,0.003603,-0.001850
9.8600,-0.001160,-0.010269,-0.999481,-0.001861,0.003691,-0.001607
9.8700,-0.001358,-0.010834,-0.997757,-0.002921,0.003150,-0.002349
9.8800,-0.001877,-0.010422,-0.999283,-0.002428,0.004866,-0.002036
9.8900,-0.001328,-0.009430,-1.000000,-0.001434,0.003668,-0.002742
9.9000,-0.001389,-0.010605,-0.999222,-0.004529,0.005114,-0.002542
9.9100,-0.002243,-0.009552,-1.000320,-0.002430,0.004046,-0.000902
9.9200,-0.002487,-0.010620,-0.999329,-0.002956,0.003043,-0.000668
9.9300,-0.002029,-0.010132,-0.999832,-0.001597,0.003021,-0.002960
9.9400,-0.003418,-0.009354,-1.000168,-0.003583,0.003789,-0.003448
9.9500,-0.002640,-0.010437,-0.999130,-0.003709,0.002919,-0.001988
9.9600,-0.001816,-0.010376,-0.998962,-0.003602,0.002598,-0.000747
9.9700,-0.002106,-0.010056,-0.999008,-0.004285,0.003836,-0.001477
9.9800,-0.002075,-0.009399,-1.001053,-0.002377,0.004051,-0.000183
9.9900,-0.001587,-0.010544,-1.001373,-0.003265,0.003756,-0.002046
10.0000,-0.001785,-0.010498,-0.998764,-0.003026,0.003107,-0.002693
10.0100,-0.002197,-0.009903,-1.000168,-0.003430,0.003730,-0.001814
10.0200,-0.002075,-0.010605,-0.999969,-0.003752,0.004822,-0.002047
10.0300,-0.001556,-0.010239,-0.998672,-0.003816,0.004235,-0.000344
10.0400,-0.001617,-0.009964,-0.999466,-0.003446,0.002952,-0.001464
10.0500,-0.001862,-0.010498,-1.001984,-0.002600,0.002800,-0.001331
10.0600,-0.001511,-0.009491,-0.999939,-0.003046,0.002410,-0.001598
10.0700,-0.002487,-0.009689,-0.998932,-0.003047,0.003299,-0.002393
10.0800,-0.001953,-0.009323,-1.000015,-0.002309,0.002331,-0.001999
10.0900,-0.002502,-0.010391,-0.999390,-0.002607,0.004219,-0.001132
10.1000,-0.003143,-0.010300,-0.999405,-0.002748,0.003939,-0.002215
10.1100,-0.001846,-0.009979,-1.000259,-0.002996,0.003634,-0.000679
10.1200,-0.002060,-0.010162,-1.000366,-0.002927,0.003398,-0.000252
10.1300,-0.001678,-0.010345,-1.000458,-0.003866,0.003266,-0.001126
10.1400,-0.002319,-0.010361,-1.000732,-0.002939,0.004080,-0.003051
10.1500,-0.002274,-0.010880,-0.998978,-0.003611,0.003201,-0.002429
10.1600,-0.002029,-0.009476,-0.999161,-0.003030,0.003156,-0.000795
10.1700,-0.002319,-0.011063,-0.999832,-0.001540,0.002988,-0.002911
10.1800,-0.002151,-0.009460,-1.000519,-0.003352,0.003400,-0.000303
10.1900,-0.001221,-0.011154,-1.000214,-0.003414,0.003717,-0.001003
10.2000,-0.002533,-0.009537,-0.998734,-0.003471,0.003096,-0.002530
10.2100,-0.001923,-0.009811,-0.999725,-0.003248,0.003539,-0.001223
10.2200,-0.001587,-0.009842,-0.998810,-0.002881,0.003160,-0.001482
10.2300,-0.002594,-0.011185,-1.000259,-0.002153,0.003215,-0.000439
10.2400,-0.002029,-0.010513,-0.999176,-0.003019,0.003327,-0.003306
10.2500,-0.000854,-0.009338,-1.000107,-0.001986,0.003192,-0.001631
10.2600,-0.002319,-0.009537,-1.000076,-0.004213,0.003113,-0.001723
10.2700,-0.002090,-0.010269,-0.999832,-0.003272,0.003631,-0.001410
10.2800,-0.002609,-0.009354,-0.999161,-0.002609,0.002698,-0.002261
10.2900,-0.002411,-0.009155,-0.999008,-0.004829,0.003802,-0.002877
10.3000,-0.002304,-0.011002,-0.999268,-0.001073,0.004926,-0.000406
10.3100,-0.002319,-0.010422,-0.999649,-0.004158,0.001961,-0.002705
10.3200,-0.002808,-0.009689,-1.001312,-0.004010,0.002940,-0.002099
10.3300,-0.001266,-0.010651,-0.998917,-0.002901,0.004157,-0.003143
10.3400,-0.002655,-0.010345,-0.998642,-0.003998,0.003727,-0.001996
10.3500,-0.001801,-0.009735,-0.999359,-0.002786,0.004120,-0.001591
10.3600,-0.002853,-0.010986,-0.999695,-0.003560,0.003956,-0.002033
10.3700,-0.002106,-0.009995,-0.999008,-0.003825,0.003346,-0.000550
10.3800,-0.002090,-0.009933,-0.999313,-0.003461,0.003286,-0.002853
10.3900,-0.002136,-0.009369,-0.999588,-0.004678,0.005115,0.000126
10.4000,-0.002167,-0.009705,-0.998901,-0.003931,0.004670,-0.000899
10.4100,-0.002014,-0.010605,-1.000656,-0.003203,0.004168,-0.002657
10.4200,-0.001495,-0.010315,-1.000092,-0.003079,0.003550,-0.001778
10.4300,-0.002304,-0.010422,-0.999344,-0.001796,0.005084,0.001744
10.4400,-0.001389,-0.009796,-1.000626,-0.003679,0.002084,-0.002340
10.4500,-0.003128,-0.010117,-0.999130,-0.003200,0.002735,-0.001754
10.4600,-0.000839,-0.010803,-1.000427,-0.002143,0.003745,-0.002523
10.4700,-0.001968,-0.011002,-0.999649,-0.003095,0.005688,-0.001492
10.4800,-0.001068,-0.010269,-0.999466,-0.003269,0.003026,-0.001627
10.4900,-0.001801,-0.010590,-1.000290,-0.002226,0.002836,-0.004460
10.5000,-0.001678,-0.010361,-0.999481,-0.004004,0.003845,-0.003268
10.5100,-0.001022,-0.009903,-0.999649,-0.002969,0.003267,-0.002622
10.5200,-0.002487,-0.009964,-0.998566,-0.004204,0.005058,-0.000725
10.5300,-0.001740,-0.010788,-1.000015,-0.003849,0.003889,-0.003978
10.5400,-0.001450,-0.009460,-1.000900,-0.001916,0.002988,-0.000444
10.5500,-0.002487,-0.009384,-0.998947,-0.002016,0.004650,-0.001642
10.5600,-0.000732,-0.010529,-1.000000,-0.003881,0.004498,-0.001317
10.5700,-0.001205,-0.010300,-0.999908,-0.002781,0.002686,-0.001636
10.5800,-0.001450,-0.009888,-0.998215,-0.002656,0.002659,-0.001705
10.5900,-0.002396,-0.009338,-0.999695,-0.002626,0.002280,0.000136
10.6000,-0.002396,-0.009415,-1.000534,-0.002580,0.003729,-0.001658
10.6100,-0.001633,-0.009216,-1.000137,-0.002782,0.003579,-0.002162
10.6200,-0.002121,-0.009460,-0.999054,-0.002866,0.004145,-0.000032
10.6300,-0.000809,-0.011185,-0.999451,-0.003203,0.002943,-0.001872
10.6400,-0.002136,-0.009979,-0.999054,-0.003400,0.003426,-0.001834
10.6500,-0.002579,-0.010590,-1.000504,-0.003713,0.003368,-0.000617
10.6600,-0.001724,-0.009979,-0.999252,-0.002089,0.002687,-0.001444
10.6700,-0.001373,-0.010925,-0.999191,-0.002826,0.004161,-0.002105
10.6800,-0.002533,-0.010117,-0.997986,-0.003191,0.004071,-0.003112
10.6900,-0.001373,-0.010544,-0.999527,-0.001711,0.004627,-0.001654
10.7000,-0.001663,-0.010300,-0.999313,-0.002942,0.002174,-0.000044
10.7100,-0.002182,-0.009766,-0.999054,-0.004243,0.002037,-0.000004
10.7200,-0.002396,-0.010147,-0.999008,-0.003589,0.003903,-0.001647
10.7300,-0.001953,-0.009323,-0.999420,-0.003123,0.005021,-0.001176
10.7400,-0.002472,-0.010010,-0.999115,-0.003609,0.003746,0.001418
10.7500,-0.002655,-0.011597,-0.998795,-0.002418,0.003531,-0.000484
10.7600,-0.001602,-0.010361,-0.999313,-0.003865,0.003863,-0.002399
10.7700,-0.002441,-0.009811,-0.999207,-0.003498,0.004051,-0.003064
10.7800,-0.002167,-0.010376,-0.998520,-0.003182,0.003284,-0.001996
10.7900,-0.001099,-0.010483,-0.999298,-0.003321,0.003692,-0.000973
10.8000,-0.000656,-0.009750,-1.001129,-0.004642,0.003169,-0.000702
10.8100,-0.001892,-0.009766,-0.999283,-0.002005,0.003640,-0.001785
10.8200,-0.002396,-0.009888,-0.999451,-0.002818,0.004589,-0.000781
10.8300,-0.002060,-0.009888,-0.999725,-0.002708,0.003930,-0.002200
10.8400,-0.001251,-0.009903,-0.999634,-0.003583,0.004179,-0.001965
10.8500,-0.000900,-0.010254,-0.998184,-0.002598,0.004396,-0.000134
10.8600,-0.000565,-0.009811,-0.998749,-0.002973,0.003928,-0.002980
10.8700,-0.002502,-0.009689,-0.999939,-0.003799,0.003203,-0.001078
10.8800,-0.002457,-0.011627,-0.999878,-0.003827,0.003950,-0.001149
10.8900,-0.000641,-0.010391,-0.999069,-0.002361,0.003343,-0.002210
10.9000,-0.000900,-0.010223,-1.000183,-0.002937,0.004197,-0.003273
10.9100,-0.001129,-0.010452,-1.000061,-0.002064,0.003372,-0.002446
10.9200,-0.001709,-0.010498,-0.999252,-0.002426,0.004302,-0.001611
10.9300,-0.001846,-0.009430,-0.999756,-0.003757,0.003868,-0.002292
10.9400,-0.001785,-0.011093,-0.999924,-0.003252,0.004262,-0.001148
10.9500,-0.002243,-0.010376,-1.000549,-0.003097,0.004113,-0.001517
10.9600,-0.001892,-0.010437,-1.000412,-0.001665,0.004758,-0.001101
10.9700,-0.002289,-0.009872,-0.999680,-0.003559,0.004180,-0.001436
10.9800,-0.001587,-0.009277,-0.999344,-0.002595,0.004099,-0.000474
10.9900,-0.002472,-0.010193,-1.000153,-0.002742,0.004294,-0.003008
11.0000,-0.001923,-0.009888,-0.999451,-0.003043,0.004450,-0.003829
11.0100,-0.001572,-0.010132,-1.000885,-0.003398,0.002810,-0.000777
11.0200,-0.000793,-0.010925,-1.000595,-0.003777,0.004853,0.001431
11.0300,-0.001266,-0.010666,-0.998413,-0.002687,0.003779,-0.002182
11.0400,-0.002197,-0.010315,-0.998596,-0.003711,0.003604,-0.003553
11.0500,-0.001892,-0.010101,-0.999420,-0.003228,0.002894,-0.001850
11.0600,-0.001556,-0.008698,-0.999680,-0.001109,0.003536,-0.001045
11.0700,-0.002655,-0.010269,-0.999313,-0.003733,0.004021,-0.000309
11.0800,-0.002594,-0.010452,-0.999954,-0.003301,0.003368,-0.001217
11.0900,-0.001282,-0.010132,-0.998291,-0.002202,0.003279,-0.003593
11.1000,-0.001801,-0.009430,-0.999527,-0.003051,0.002933,-0.001121
11.1100,-0.002884,-0.010574,-0.999069,-0.003494,0.004481,-0.002181
11.1200,-0.002899,-0.009018,-0.999969,-0.002259,0.004318,-0.002879
11.1300,-0.001923,-0.009506,-0.999405,-0.003540,0.002165,-0.001110
11.1400,-0.002365,-0.009018,-0.999802,-0.002961,0.004553,-0.001338
11.1500,-0.002350,-0.010162,-1.000305,-0.003272,0.004115,-0.001592
11.1600,-0.002884,-0.010117,-1.000168,-0.003117,0.004841,-0.001250
11.1700,-0.001785,-0.010284,-1.001083,-0.004759,0.003416,-0.002872
11.1800,-0.001083,-0.009872,-0.999939,-0.003541,0.004278,-0.001600
11.1900,-0.001053,-0.010605,-1.000153,-0.003588,0.003883,-0.002494
11.2000,-0.001770,-0.010742,-1.001175,-0.004713,0.003410,-0.001558
11.2100,-0.001572,-0.009918,-1.000305,-0.001864,0.003520,-0.001124
11.2200,-0.001541,-0.010193,-0.999832,-0.003153,0.003720,-0.001916
11.2300,-0.002136,-0.010666,-0.999176,-0.003079,0.005632,-0.002404
11.2400,-0.002533,-0.009995,-0.999405,-0.001770,0.002253,-0.001207
11.2500,-0.001465,-0.009857,-1.000504,-0.002161,0.003245,-0.002711
11.2600,-0.003372,-0.010696,-1.000473,-0.002495,0.003736,-0.003882
11.2700,-0.002731,-0.009140,-1.000137,-0.003706,0.004226,-0.001656
11.2800,-0.000977,-0.010330,-1.001099,-0.003052,0.003066,-0.002733
11.2900,-0.002838,-0.010468,-1.000626,-0.003307,0.002736,-0.002634
11.3000,-0.002060,-0.008438,-0.999405,-0.003668,0.002379,-0.002574
11.3100,-0.002350,-0.009674,-0.999893,-0.003070,0.002455,-0.000270
11.3200,-0.002823,-0.010254,-1.000305,-0.002592,0.004932,-0.000966
11.3300,-0.002960,-0.010468,-0.999725,-0.002562,0.004238,-0.000415
11.3400,-0.002548,-0.009369,-0.998962,-0.002009,0.002139,-0.002056
11.3500,-0.001511,-0.010880,-1.000320,-0.004090,0.003713,-0.001012
11.3600,-0.001617,-0.011032,-0.999939,-0.005112,0.003598,-0.001413
11.3700,-0.002472,-0.009720,-0.999115,-0.001603,0.002592,-0.000354
11.3800,-0.002502,-0.009521,-0.998901,-0.003811,0.003293,-0.001393
11.3900,-0.001007,-0.008499,-0.998657,-0.003708,0.003480,-0.001813
11.4000,-0.001083,-0.010437,-0.998947,-0.002097,0.004136,-0.001797
11.4100,-0.002228,-0.010849,-0.999863,-0.003881,0.003445,-0.002418
11.4200,-0.001404,-0.010880,-1.000778,-0.002121,0.002970,-0.002112
11.4300,-0.001373,-0.009171,-0.998489,-0.002888,0.003061,-0.002028
11.4400,-0.001480,-0.009857,-0.999008,-0.003899,0.006129,-0.001344
11.4500,-0.002563,-0.010101,-0.999130,-0.004006,0.004910,-0.001356
11.4600,-0.001801,-0.010269,-0.998840,-0.002952,0.005357,-0.001856
11.4700,-0.002396,-0.010056,-0.999481,-0.002734,0.004206,-0.002436
11.4800,-0.001328,-0.009979,-0.999496,-0.002967,0.003967,-0.003210
11.4900,-0.001129,-0.010025,-1.000015,-0.002390,0.004480,-0.002414
11.5000,-0.003311,-0.009674,-0.999512,-0.002691,0.003757,-0.001124
11.5100,-0.001953,-0.011108,-0.999878,-0.003575,0.004152,-0.002662
11.5200,-0.002594,-0.010117,-1.000351,-0.003297,0.003235,-0.001393
11.5300,-0.002365,-0.011154,-0.998123,-0.001359,0.004448,-0.001947
11.5400,-0.001923,-0.010345,-0.998581,-0.003545,0.001921,-0.001012
11.5500,-0.002457,-0.009735,-0.999588,-0.003391,0.004668,-0.002339
11.5600,-0.002014,-0.011017,-1.000153,-0.001834,0.002682,-0.001721
11.5700,-0.003448,-0.010483,-1.000595,-0.002908,0.003507,-0.002920
11.5800,-0.002457,-0.010040,-1.000534,-0.003116,0.004880,-0.001196
11.5900,-0.001968,-0.009888,-1.000275,-0.003382,0.003204,-0.001942
11.6000,-0.000900,-0.009674,-0.999817,-0.004034,0.003991,-0.003541
11.6100,-0.001663,-0.010025,-0.999451,-0.002825,0.003574,-0.001886
11.6200,-0.002380,-0.010452,-0.999405,-0.003437,0.004213,-0.001331
11.6300,-0.003708,-0.010315,-0.998962,-0.004149,0.003334,-0.002582
11.6400,-0.001953,-0.010727,-0.999390,-0.002808,0.002966,-0.001240
11.6500,-0.002106,-0.010788,-0.999725,-0.002328,0.003605,-0.002405
11.6600,-0.003204,-0.008881,-0.999100,-0.002826,0.004603,-0.002050
11.6700,-0.002991,-0.008789,-1.000427,-0.003813,0.004969,-0.002630
11.6800,-0.001678,-0.010071,-0.999237,-0.005290,0.003787,-0.001973
11.6900,-0.001694,-0.010071,-1.000824,-0.003635,0.002974,-0.000680
11.7000,-0.001511,-0.010773,-1.001083,-0.002417,0.003124,-0.000423
11.7100,-0.001022,-0.008591,-1.000000,-0.002555,0.002540,-0.002815
11.7200,-0.002350,-0.010330,-0.999237,-0.003456,0.003743,-0.001958
11.7300,-0.001251,-0.011139,-0.999664,-0.003730,0.002803,-0.002295
11.7400,-0.001404,-0.008728,-0.999664,-0.001495,0.003568,-0.002107
11.7500,-0.002441,-0.009399,-0.999725,-0.003871,0.003038,-0.002727
11.7600,-0.002029,-0.012054,-0.999496,-0.002650,0.003721,-0.001292
11.7700,-0.002304,-0.010712,-0.999817,-0.003163,0.004870,-0.002246
11.7800,-0.001465,-0.009674,-0.999252,-0.002652,0.003316,-0.000856
11.7900,-0.001007,-0.009735,-1.000549,-0.002189,0.004543,-0.001774
11.8000,-0.002869,-0.010269,-0.999542,-0.002307,0.002208,-0.001624
11.8100,-0.001862,-0.010529,-0.999390,-0.002739,0.003159,-0.000353
11.8200,-0.001495,-0.009750,-0.999481,-0.002488,0.004402,-0.002486
11.8300,-0.001846,-0.010590,-1.000931,-0.002574,0.002405,-0.002376
11.8400,-0.000687,-0.009140,-0.999969,-0.003543,0.004139,-0.001352
11.8500,-0.000809,-0.009995,-0.999649,-0.002774,0.003657,-0.000743
11.8600,-0.001968,-0.011246,-0.999466,-0.002759,0.004360,-0.000096
11.8700,-0.002411,-0.010254,-0.998779,-0.002192,0.004589,-0.001012
11.8800,-0.002380,-0.010513,-0.998245,-0.002809,0.004434,-0.002135
11.8900,-0.001801,-0.009918,-1.000504,-0.000989,0.004006,-0.002326
11.9000,-0.001602,-0.009933,-0.999496,-0.002308,0.002554,-0.001494
11.9100,-0.001251,-0.009415,-1.000031,-0.004244,0.005836,-0.001866
11.9200,-0.002365,-0.010071,-0.999893,-0.002938,0.004601,-0.001421
11.9300,-0.002579,-0.010010,-1.000000,-0.003647,0.004566,-0.002005
11.9400,-0.002899,-0.009995,-0.998123,-0.003221,0.003296,-0.002970
11.9500,-0.001846,-0.009674,-0.998093,-0.003272,0.003792,-0.001546
11.9600,-0.002167,-0.010590,-0.999817,-0.003357,0.004088,-0.001328
11.9700,-0.002747,-0.010010,-0.999619,-0.002131,0.004127,-0.001041
11.9800,-0.001633,-0.009445,-0.998520,-0.003815,0.002958,-0.001840
11.9900,-0.001663,-0.010956,-0.998703,-0.002110,0.004719,-0.002943
12.0000,-0.001236,-0.010025,-0.999191,-0.003496,0.004596,-0.001825
12.0100,-0.001343,-0.008774,-0.999924,-0.004485,0.003969,-0.001485
12.0200,-0.002762,-0.009369,-0.999374,-0.003511,0.004229,-0.002374
12.0300,-0.001923,-0.009613,-1.000977,-0.002343,0.004371,-0.001229
12.0400,-0.000885,-0.009995,-0.999451,-0.002226,0.003678,-0.001849
12.0500,-0.001923,-0.010056,-0.998825,-0.003270,0.003674,-0.002575
12.0600,-0.002487,-0.010529,-0.998856,-0.004285,0.004561,-0.003485
12.0700,-0.002426,-0.009735,-1.000809,-0.002294,0.004106,-0.001756
12.0800,-0.002625,-0.009338,-0.999695,-0.000944,0.004240,-0.001273
12.0900,-0.002045,-0.010178,-0.999725,-0.003394,0.004084,-0.002441
12.1000,-0.001282,-0.009766,-0.999557,-0.003027,0.003134,-0.001015
12.1100,-0.002686,-0.010193,-0.999847,-0.004286,0.003572,-0.002913
12.1200,-0.002380,-0.010391,-1.000229,-0.001601,0.004357,-0.002226
12.1300,-0.002136,-0.010452,-1.000275,-0.002813,0.001592,-0.002167
12.1400,-0.002106,-0.010178,-1.000244,-0.003095,0.004395,-0.000931
12.1500,-0.001740,-0.009827,-0.998337,-0.003983,0.003267,-0.001714
12.1600,-0.002563,-0.009689,-0.998184,-0.004623,0.004507,-0.001126
12.1700,-0.003159,-0.010284,-1.000595,-0.003989,0.003319,-0.002954
12.1800,-0.001846,-0.008942,-1.000305,-0.003947,0.003970,-0.000581
12.1900,-0.001770,-0.009995,-0.999649,-0.001607,0.004060,-0.001704
12.2000,-0.001572,-0.010178,-0.999344,-0.003993,0.003986,-0.002739
12.2100,-0.001968,-0.009888,-0.998901,-0.000594,0.002794,-0.002638
12.2200,-0.002518,-0.010010,-0.999893,-0.002363,0.002249,-0.000256
12.2300,-0.001678,-0.009995,-0.998672,-0.004842,0.003587,-0.002970
12.2400,-0.001648,-0.009689,-0.998535,-0.003148,0.003842,-0.001176
12.2500,-0.002197,-0.010010,-0.998962,-0.003845,0.003752,-0.004083
12.2600,-0.002869,-0.010101,-1.000183,-0.003133,0.004187,-0.002782
12.2700,-0.001953,-0.009842,-1.001251,-0.003529,0.003293,-0.001539
12.2800,-0.002182,-0.009094,-0.999130,-0.003840,0.002842,-0.003339
12.2900,-0.002075,-0.010910,-1.000198,-0.003780,0.003670,-0.000866
12.3000,-0.002991,-0.010345,-1.000168,-0.003427,0.003969,-0.000781
12.3100,-0.002686,-0.009262,-1.000366,-0.003461,0.004032,-0.004184
12.3200,-0.002121,-0.010864,-0.999695,-0.002620,0.003547,-0.002202
12.3300,-0.002853,-0.010315,-0.999512,-0.003586,0.003436,-0.000879
12.3400,-0.002472,-0.010605,-1.000732,-0.002564,0.004551,-0.002813
12.3500,-0.001740,-0.009003,-1.000122,-0.004030,0.004160,-0.000552
12.3600,-0.001236,-0.010468,-0.998688,-0.002565,0.003282,-0.001244
12.3700,-0.000793,-0.010071,-1.001312,-0.004126,0.002998,-0.000985
12.3800,-0.001541,-0.011032,-1.000412,-0.002997,0.003977,-0.001276
12.3900,-0.002365,-0.009125,-1.000305,-0.002797,0.003364,-0.003112
12.4000,-0.002716,-0.009933,-0.999863,-0.002628,0.004101,-0.001285
12.4100,-0.000641,-0.009995,-1.000000,-0.003531,0.002573,-0.002639
12.4200,-0.001968,-0.010498,-0.999146,-0.003160,0.002352,-0.002512
12.4300,-0.002045,-0.010223,-1.000534,-0.003281,0.004649,-0.002319
12.4400,-0.002289,-0.011505,-0.998352,-0.003404,0.003676,-0.002197
12.4500,-0.002045,-0.011414,-0.998703,-0.003726,0.004118,0.000453
12.4600,-0.001556,-0.010101,-1.000458,-0.003535,0.003258,-0.002081
12.4700,-0.001328,-0.009644,-1.000778,-0.005339,0.003709,-0.002219
12.4800,-0.001755,-0.008957,-0.998627,-0.002891,0.004253,-0.002396
12.4900,-0.002060,-0.010239,-0.999863,-0.004128,0.002912,-0.000629
12.5000,-0.001907,-0.009521,-1.000534,-0.003033,0.003247,-0.002362
12.5100,-0.002014,-0.009872,-1.001022,-0.003301,0.004602,-0.002174
12.5200,-0.001343,-0.010025,-1.000488,-0.002634,0.004684,-0.002227
12.5300,-0.001770,-0.010162,-0.999481,-0.004064,0.003669,-0.002603
12.5400,-0.002106,-0.010620,-0.998596,-0.003083,0.004222,-0.000474
12.5500,-0.002487,-0.009995,-0.999573,-0.002952,0.003618,-0.002158
12.5600,-0.001907,-0.010300,-0.999969,-0.003736,0.004730,-0.002217
12.5700,-0.001297,-0.009216,-0.999176,-0.004250,0.004569,-0.002283
12.5800,-0.001022,-0.009613,-1.000244,-0.003028,0.003130,0.000280
12.5900,-0.001801,-0.009964,-0.999405,-0.003360,0.004275,-0.001256
12.6000,-0.000931,-0.008316,-0.999985,-0.002866,0.002533,-0.001065
12.6100,-0.001740,-0.008804,-0.999954,-0.002290,0.005489,-0.002576
12.6200,-0.002457,-0.010880,-1.000153,-0.003252,0.003353,-0.000233
12.6300,-0.001953,-0.010422,-0.998825,-0.003475,0.003183,-0.003061
12.6400,-0.001892,-0.010315,-0.998718,-0.003496,0.004570,-0.002079
12.6500,-0.002991,-0.010956,-0.998947,-0.002513,0.003456,-0.001168
12.6600,-0.001266,-0.010376,-0.998550,-0.002584,0.002309,-0.002926
12.6700,-0.001617,-0.009216,-0.999832,-0.002709,0.003927,-0.000629
12.6800,-0.002594,-0.010330,-0.999725,-0.003308,0.004644,-0.000519
12.6900,-0.001541,-0.010468,-1.000397,-0.002699,0.005142,-0.001520
12.7000,-0.002731,-0.009506,-0.998642,-0.003892,0.004211,-0.003100
12.7100,-0.001816,-0.010437,-0.999344,-0.003763,0.003530,-0.002081
12.7200,-0.001114,-0.010437,-0.999527,-0.002814,0.003462,-0.001581
12.7300,-0.001923,-0.010925,-1.000061,-0.004518,0.002580,-0.001553
12.7400,-0.001892,-0.010910,-0.998413,-0.002124,0.003884,-0.003784
12.7500,-0.002609,-0.010849,-0.999634,-0.002661,0.003772,-0.001813
12.7600,-0.002487,-0.010559,-0.999939,-0.002196,0.004014,-0.001489
12.7700,-0.002914,-0.009720,-0.999680,-0.003273,0.003998,-0.001520
12.7800,-0.002533,-0.010574,-1.000259,-0.001901,0.004568,-0.001367
12.7900,-0.001633,-0.010330,-0.999390,-0.002217,0.003618,-0.001716
12.8000,-0.002884,-0.009338,-0.999985,-0.003037,0.002500,-0.001106
12.8100,-0.002914,-0.009598,-1.000137,-0.002355,0.004173,-0.001341
12.8200,-0.001831,-0.009735,-0.999359,-0.003156,0.003817,-0.000634
12.8300,0.000275,-0.009949,-0.998581,-0.004295,0.005498,-0.001478
12.8400,-0.000626,-0.010635,-1.000214,-0.003687,0.002408,-0.000942
12.8500,-0.000305,-0.010330,-0.999451,-0.002782,0.003675,0.000842
12.8600,-0.001541,-0.009338,-0.999435,-0.002010,0.003078,-0.003492
12.8700,-0.002579,-0.010086,-0.999664,-0.002904,0.003514,-0.001604
12.8800,-0.001251,-0.010574,-1.000458,-0.003424,0.003190,-0.003899
12.8900,-0.002289,-0.009766,-0.999146,-0.002233,0.004091,-0.002468
12.9000,-0.001419,-0.009613,-0.999008,-0.003668,0.004541,-0.003395
12.9100,-0.001846,-0.010590,-1.000443,-0.004144,0.003080,-0.002433
12.9200,-0.001678,-0.010727,-1.000397,-0.002981,0.003945,-0.000868
12.9300,-0.002350,-0.010818,-0.999512,-0.002229,0.003867,-0.001789
12.9400,-0.001266,-0.010910,-1.000092,-0.001739,0.003329,-0.001281
12.9500,-0.001862,-0.010269,-1.000168,-0.002496,0.003054,-0.001332
12.9600,-0.002136,-0.009918,-0.999832,-0.002476,0.003121,-0.001069
12.9700,-0.002365,-0.009155,-0.999603,-0.002323,0.002669,-0.001174
12.9800,-0.001541,-0.009308,-1.001129,-0.003797,0.004867,-0.001316
12.9900,-0.002106,-0.009949,-1.001221,-0.002714,0.003690,-0.001322
13.0000,-0.002213,-0.010941,-0.998795,-0.003173,0.004042,-0.002906
13.0100,-0.002930,-0.010925,-1.000000,-0.002927,0.003549,-0.003763
13.0200,-0.002136,-0.009583,-1.000031,-0.004067,0.003191,-0.000998
13.0300,-0.000931,-0.010162,-0.999725,-0.002901,0.003251,-0.002577
13.0400,-0.001556,-0.010422,-0.999252,-0.002642,0.003658,-0.003832
13.0500,-0.001312,-0.009979,-0.998520,-0.002551,0.002600,-0.002213
13.0600,-0.001343,-0.010788,-0.999878,-0.004284,0.003720,-0.002242
13.0700,-0.001160,-0.010437,-0.999893,-0.003801,0.004223,-0.003003
13.0800,-0.003220,-0.010330,-0.998734,-0.002256,0.003845,-0.002478
13.0900,-0.002029,-0.010361,-0.998901,-0.002083,0.003784,-0.003128
13.1000,-0.002762,-0.010620,-0.998810,-0.003331,0.002351,-0.000927
13.1100,-0.002228,-0.010651,-0.998459,-0.003544,0.002944,-0.001948
13.1200,-0.000275,-0.009445,-1.000290,-0.001886,0.003857,-0.002312
13.1300,-0.001831,-0.010956,-0.999710,-0.001128,0.004820,-0.001939
13.1400,-0.002548,-0.009720,-0.999863,-0.002047,0.004708,-0.001878
13.1500,-0.000961,-0.008987,-0.998260,-0.002129,0.003771,-0.000626
13.1600,-0.002075,-0.010254,-0.999542,-0.003162,0.003075,-0.001016
13.1700,-0.001282,-0.010483,-1.000137,-0.003570,0.004343,-0.001343
13.1800,-0.002380,-0.010101,-0.999695,-0.004159,0.003094,-0.001864
13.1900,-0.001434,-0.009964,-0.999481,-0.004201,0.004070,0.000044
13.2000,-0.001053,-0.010986,-1.000381,-0.003499,0.003989,-0.002603
13.2100,-0.002060,-0.010254,-0.999741,-0.003510,0.005034,-0.001619
13.2200,-0.001846,-0.009384,-0.999557,-0.003341,0.004890,-0.002884
13.2300,-0.001587,-0.009918,-0.998810,-0.003129,0.004029,-0.002612
13.2400,-0.002014,-0.010620,-0.999603,-0.002151,0.004246,-0.002885
13.2500,-0.002335,-0.010666,-0.999451,-0.001799,0.004032,-0.001356
13.2600,-0.002274,-0.009735,-0.999954,-0.002716,0.004393,-0.002049
13.2700,-0.001480,-0.009277,-1.000351,-0.002490,0.002969,-0.002806
13.2800,-0.001923,-0.009796,-0.999069,-0.002756,0.003495,-0.001680
13.2900,-0.002853,-0.010056,-1.000168,-0.003465,0.005045,-0.000811
13.3000,-0.001541,-0.009689,-0.999893,-0.004235,0.002873,-0.002392
13.3100,-0.001419,-0.009872,-0.999313,-0.003465,0.003563,-0.001065
13.3200,-0.001297,-0.009689,-0.999649,-0.003248,0.003049,-0.001653
13.3300,-0.000961,-0.009430,-1.000092,-0.003695,0.003196,-0.001161
13.3400,-0.001953,-0.009872,-0.999939,-0.002450,0.004867,-0.001989
13.3500,-0.002243,-0.010086,-0.999908,-0.002637,0.003743,-0.001394
13.3600,-0.001633,-0.011002,-1.000000,-0.002414,0.003343,-0.001604
13.3700,-0.001678,-0.010635,-0.999741,-0.002687,0.004459,-0.003079
13.3800,-0.002640,-0.010513,-1.000168,-0.004352,0.003367,-0.002787
13.3900,-0.001801,-0.010971,-0.999466,-0.002344,0.003485,-0.002636
13.4000,-0.002472,-0.010208,-0.999557,-0.004341,0.003413,-0.002825
13.4100,-0.001343,-0.008865,-1.000320,-0.003925,0.003539,-0.002449
13.4200,-0.002106,-0.009445,-0.999634,-0.002951,0.002558,-0.000898
13.4300,-0.001938,-0.010574,-0.999023,-0.002443,0.004215,-0.002428
13.4400,-0.001953,-0.009384,-0.998978,-0.003640,0.003416,-0.001568
13.4500,-0.000809,-0.010681,-0.999191,-0.003017,0.003214,-0.001649
13.4600,-0.003265,-0.010361,-0.998672,-0.004634,0.003812,-0.001669
13.4700,-0.000931,-0.010529,-0.999527,-0.003685,0.003477,-0.002796
13.4800,-0.001465,-0.009003,-0.999084,-0.003937,0.004559,-0.002949
13.4900,-0.001694,-0.011597,-0.999054,-0.003287,0.003917,-0.002500
13.5000,-0.001846,-0.010315,-1.000519,-0.003880,0.004319,-0.002326
13.5100,-0.002487,-0.011154,-0.999588,-0.002976,0.003097,-0.002756
13.5200,-0.002121,-0.009262,-0.999649,-0.004353,0.003757,-0.003184
13.5300,-0.001633,-0.010513,-1.000198,-0.002497,0.003780,-0.001570
13.5400,-0.001205,-0.010040,-1.000107,-0.002993,0.005149,-0.001914
13.5500,-0.001190,-0.010452,-1.000534,-0.004057,0.003146,-0.002057
13.5600,-0.003052,-0.009781,-0.999573,-0.003438,0.003067,-0.001499
13.5700,-0.002396,-0.010910,-0.998322,-0.003458,0.003782,-0.001147
13.5800,-0.001999,-0.010071,-0.999771,-0.002931,0.002319,-0.002082
13.5900,-0.002945,-0.009811,-0.999603,-0.002692,0.005444,-0.002331
13.6000,-0.002136,-0.011246,-0.999329,-0.002959,0.003212,-0.002146
13.6100,-0.001007,-0.010422,-1.000092,-0.004471,0.003451,-0.000246
13.6200,-0.002365,-0.010773,-1.000275,-0.004529,0.001937,-0.001931
13.6300,-0.002441,-0.009628,-0.999710,-0.002035,0.003171,-0.002177
13.6400,-0.001862,-0.009750,-0.999405,-0.003110,0.003345,-0.000945
13.6500,-0.001495,-0.010956,-0.999481,-0.003341,0.003651,-0.001540
13.6600,-0.002243,-0.009506,-0.999191,-0.002613,0.003729,-0.002358
13.6700,-0.001495,-0.009720,-0.998093,-0.003930,0.003094,-0.000801
13.6800,-0.001602,-0.010757,-0.999573,-0.003319,0.003549,-0.002372
13.6900,-0.002502,-0.010193,-0.999527,-0.003854,0.003695,-0.000661
13.7000,-0.001556,-0.010803,-0.999588,-0.002761,0.004177,-0.001506
13.7100,-0.001846,-0.010864,-0.999100,-0.002330,0.003181,-0.001460
13.7200,-0.001114,-0.009796,-1.000122,-0.002895,0.003013,-0.003645
13.7300,-0.001785,-0.009430,-1.000717,-0.001947,0.003892,-0.001268
13.7400,-0.002228,-0.010239,-0.999420,-0.003740,0.003799,-0.002270
13.7500,-0.002014,-0.010590,-0.999573,-0.005250,0.002686,-0.001023
13.7600,-0.001419,-0.009201,-1.000275,-0.001755,0.003311,-0.002839
13.7700,-0.002060,-0.009872,-0.999420,-0.003422,0.002598,-0.002515
13.7800,-0.000900,-0.009949,-0.999817,-0.004310,0.005246,-0.001138
13.7900,-0.001129,-0.009171,-0.998734,-0.002343,0.005338,-0.000483
13.8000,-0.002060,-0.009903,-0.998413,-0.003245,0.003471,-0.003163
13.8100,-0.002655,-0.009521,-1.000214,-0.003331,0.003021,-0.001435
13.8200,-0.000946,-0.008911,-1.001007,-0.002990,0.002961,-0.001529
13.8300,-0.002213,-0.010208,-0.999634,-0.002846,0.004816,-0.000663
13.8400,-0.001694,-0.009933,-0.997711,-0.004646,0.002762,-0.001483
13.8500,-0.001740,-0.009064,-1.000671,-0.003478,0.003254,-0.001852
13.8600,-0.002045,-0.010391,-0.999756,-0.001932,0.002399,-0.001939
13.8700,-0.001694,-0.010727,-0.998947,-0.002802,0.003427,-0.003446
13.8800,-0.002197,-0.009827,-0.999100,-0.003430,0.003571,-0.000921
13.8900,-0.001556,-0.011215,-0.999725,-0.003369,0.003993,-0.001030
13.9000,-0.001587,-0.010269,-0.998993,-0.003240,0.003810,-0.002463
13.9100,-0.002426,-0.009598,-0.998932,-0.004101,0.004378,-0.000943
13.9200,-0.002502,-0.010742,-1.000671,-0.003683,0.002813,-0.001178
13.9300,-0.002075,-0.010498,-0.999817,-0.004240,0.002808,-0.000725
13.9400,-0.001328,-0.010147,-0.999207,-0.003697,0.003518,-0.002416
13.9500,-0.000458,-0.009262,-1.000244,-0.002715,0.004824,-0.000900
13.9600,-0.003113,-0.010529,-0.999985,-0.003813,0.003962,-0.003674
13.9700,-0.001892,-0.009766,-0.998947,-0.004720,0.005118,-0.001846
13.9800,-0.001648,-0.009369,-0.999695,-0.003121,0.005470,-0.000989
13.9900,-0.002960,-0.008743,-0.998535,-0.002915,0.004989,-0.002713
14.0000,-0.001724,-0.009430,-0.999710,-0.003029,0.003200,-0.002628
14.0100,-0.001541,-0.010742,-0.999084,-0.002223,0.002780,-0.001286
14.0200,-0.001938,-0.010162,-0.999054,-0.003861,0.003104,-0.001967
14.0300,-0.001892,-0.009735,-0.999298,-0.001953,0.003788,-0.001412
14.0400,-0.001938,-0.010635,-1.000290,-0.003413,0.004727,-0.002238
14.0500,-0.003113,-0.010208,-0.998947,-0.003051,0.004775,-0.001400
14.0600,-0.000732,-0.009323,-0.999176,-0.003086,0.004162,-0.001851
14.0700,-0.000641,-0.011108,-0.999588,-0.004173,0.003336,-0.001061
14.0800,-0.001694,-0.010361,-0.999069,-0.003128,0.004107,-0.001249
14.0900,-0.002548,-0.010773,-0.998962,-0.004357,0.003964,-0.001296
14.1000,-0.002808,-0.010361,-0.998413,-0.003063,0.002410,-0.003061
14.1100,-0.002136,-0.009750,-0.999496,-0.002058,0.004645,-0.001802
14.1200,-0.001831,-0.009903,-1.000000,-0.004206,0.003342,-0.000763
14.1300,-0.000275,-0.009720,-0.999863,-0.003858,0.004197,-0.003838
14.1400,-0.002213,-0.010315,-1.000671,-0.004747,0.004594,-0.000916
14.1500,-0.001633,-0.009979,-0.998413,-0.002019,0.002889,-0.002320
14.1600,-0.002396,-0.010223,-1.000092,-0.003022,0.004375,-0.002023
14.1700,-0.002182,-0.010498,-0.998367,-0.003026,0.004387,-0.001281
14.1800,-0.000885,-0.010345,-1.000229,-0.002344,0.004111,0.000186
14.1900,-0.002350,-0.010239,-1.001312,-0.003093,0.005659,-0.001382
14.2000,-0.002945,-0.010071,-1.000259,-0.002490,0.003734,-0.001140
14.2100,-0.001556,-0.009415,-0.999191,-0.003192,0.004295,-0.000226
14.2200,-0.002441,-0.010925,-1.000031,-0.002884,0.003986,-0.001454
14.2300,-0.001373,-0.009995,-0.999924,-0.002254,0.003832,-0.002776
14.2400,-0.001572,-0.011322,-0.999435,-0.001789,0.003467,-0.000558
14.2500,-0.003235,-0.010834,-0.999832,-0.003729,0.002116,-0.002361
14.2600,-0.001663,-0.010239,-1.000641,-0.003316,0.003875,-0.001218
14.2700,-0.000259,-0.009964,-0.999191,-0.002625,0.002974,-0.002171
14.2800,-0.000305,-0.010605,-0.999512,-0.003686,0.003334,-0.003017
14.2900,-0.002228,-0.010498,-0.999649,-0.002176,0.003008,-0.003409
14.3000,-0.001724,-0.010101,-1.000259,-0.002868,0.003623,-0.002672
14.3100,-0.002029,-0.010391,-0.999771,-0.003951,0.002032,-0.001059
14.3200,-0.001999,-0.009354,-0.999176,-0.003377,0.003966,-0.001628
14.3300,-0.001755,-0.011719,-0.998688,-0.002418,0.002315,-0.003193
14.3400,-0.001846,-0.009338,-1.000259,-0.003557,0.002845,-0.001874
14.3500,-0.003784,-0.009827,-1.000259,-0.003359,0.004107,-0.002128
14.3600,-0.003571,-0.009094,-0.998932,-0.002046,0.004016,-0.000645
14.3700,-0.002319,-0.009201,-0.999924,-0.003204,0.005235,-0.002653
14.3800,-0.002777,-0.010376,-0.999146,-0.003678,0.004526,-0.001737
14.3900,-0.001602,-0.010620,-0.999664,-0.004335,0.004616,-0.001882
14.4000,-0.002045,-0.010040,-0.999344,-0.003527,0.004295,-0.001796
14.4100,-0.002518,-0.008957,-0.998672,-0.002425,0.003170,-0.002344
14.4200,-0.001877,-0.009598,-0.999664,-0.002258,0.003132,-0.003114
14.4300,-0.001755,-0.009842,-0.999451,-0.003005,0.005307,-0.003829
14.4400,-0.002533,-0.009232,-0.998581,-0.002835,0.002422,-0.001932
14.4500,-0.002548,-0.009140,-1.000031,-0.003236,0.004855,-0.001695
14.4600,-0.002167,-0.009079,-0.999023,-0.003961,0.004870,-0.001613
14.4700,-0.002502,-0.009583,-1.000015,-0.003288,0.003539,-0.001826
14.4800,-0.000214,-0.010681,-0.999847,-0.001241,0.004487,-0.002177
14.4900,-0.001465,-0.009720,-1.000122,-0.004133,0.002454,-0.001083
14.5000,-0.002808,-0.010559,-0.999878,-0.003773,0.003471,-0.001737
14.5100,-0.001907,-0.010254,-1.000778,-0.003345,0.004146,-0.002699
14.5200,-0.000748,-0.010376,-0.999298,-0.002754,0.003907,-0.002814
14.5300,-0.002472,-0.009857,-0.999741,-0.001906,0.003125,-0.002765
14.5400,-0.002426,-0.010742,-1.000336,-0.000500,0.004617,-0.001788
14.5500,-0.001953,-0.010223,-0.999847,-0.002906,0.003752,0.000454
14.5600,-0.002228,-0.009262,-1.000381,-0.003105,0.003931,-0.001394
14.5700,-0.001907,-0.010315,-1.000397,-0.002241,0.003330,-0.004262
14.5800,-0.002396,-0.009171,-0.999084,-0.003044,0.004269,-0.003835
14.5900,-0.001282,-0.010040,-0.999329,-0.003706,0.003903,-0.001642
14.6000,-0.002304,-0.010529,-0.999542,-0.003829,0.003503,-0.002279
14.6100,-0.001785,-0.009735,-1.000183,-0.003377,0.002495,-0.000976
14.6200,-0.001755,-0.010300,-0.999588,-0.002759,0.003879,-0.001119
14.6300,-0.001831,-0.009949,-0.999756,-0.003572,0.003983,-0.002309
14.6400,-0.002151,-0.009415,-0.999237,-0.002804,0.004299,-0.001554
14.6500,-0.001587,-0.009933,-0.999451,-0.002455,0.004513,-0.002245
14.6600,-0.002045,-0.010330,-0.999359,-0.004252,0.003629,-0.001979
14.6700,-0.002365,-0.010239,-1.000122,-0.003163,0.004435,-0.001696
14.6800,-0.002014,-0.009689,-0.999130,-0.002546,0.003690,-0.000596
14.6900,-0.002319,-0.009079,-0.999023,-0.002776,0.004229,-0.002269
14.7000,-0.003113,-0.009277,-0.998993,-0.002931,0.003782,-0.002283
14.7100,-0.001877,-0.010284,-0.999588,-0.002853,0.004531,-0.001524
14.7200,-0.002502,-0.010300,-0.999969,-0.002078,0.003487,-0.001362
14.7300,-0.002213,-0.009628,-1.000153,-0.003977,0.002395,-0.000314
14.7400,-0.002655,-0.009445,-1.000092,-0.002576,0.004139,-0.001562
14.7500,-0.002518,-0.010910,-0.999298,-0.004098,0.004106,-0.002211
14.7600,-0.002228,-0.009262,-1.000137,-0.004170,0.004951,-0.001166
14.7700,-0.002563,-0.010345,-0.999481,-0.002794,0.004825,-0.002161
14.7800,-0.002029,-0.010406,-0.999390,-0.004099,0.004600,-0.001720
14.7900,-0.001877,-0.009949,-0.999344,-0.003561,0.004171,-0.001573
14.8000,-0.002350,-0.007797,-1.000397,-0.003705,0.002313,-0.001766
14.8100,-0.001724,-0.009445,-0.998520,-0.002740,0.003659,-0.002164
14.8200,-0.001740,-0.009430,-0.998718,-0.003011,0.004255,-0.001751
14.8300,-0.001755,-0.009583,-0.998901,-0.002072,0.002609,-0.001215
14.8400,-0.002335,-0.009491,-0.999969,-0.002404,0.004068,-0.002954
14.8500,-0.001831,-0.010269,-1.000076,-0.004229,0.003425,-0.001241
14.8600,-0.002502,-0.009659,-1.000885,-0.003346,0.004386,-0.003503
14.8700,-0.001389,-0.009781,-0.999283,-0.002939,0.003864,-0.000736
14.8800,-0.001038,-0.009415,-1.000549,-0.002720,0.004098,-0.002936
14.8900,-0.001526,-0.009598,-0.999374,-0.004012,0.002989,-0.002585
14.9000,-0.002213,-0.010010,-0.999603,-0.003737,0.004603,-0.001971
14.9100,-0.002335,-0.009567,-0.999100,-0.003204,0.003845,-0.002311
14.9200,-0.002258,-0.009872,-0.999908,-0.002370,0.004677,-0.002283
14.9300,-0.002380,-0.010574,-1.000458,-0.004780,0.005123,-0.003069
14.9400,-0.002502,-0.010284,-0.998611,-0.002910,0.003444,-0.002384
14.9500,-0.002487,-0.010132,-0.999237,-0.002541,0.003794,-0.002552
14.9600,-0.002090,-0.010056,-0.999390,-0.002835,0.002566,-0.001582
14.9700,-0.002625,-0.009827,-0.998428,-0.002749,0.003649,-0.004157
14.9800,-0.001526,-0.010559,-0.999222,-0.003777,0.005646,-0.001954
14.9900,-0.001648,-0.009995,-0.998779,-0.002629,0.003559,-0.001408
15.0000,-0.001526,-0.009613,-0.999420,-0.002694,0.003705,-0.002543
15.0100,-0.003632,-0.009583,-0.999817,-0.001911,0.004890,-0.001303
15.0200,-0.001923,-0.009583,-0.999786,-0.002761,0.003484,-0.003191
15.0300,-0.001877,-0.010788,-0.998917,-0.003481,0.004000,-0.001556
15.0400,-0.001144,-0.010986,-0.999008,-0.002725,0.002964,-0.001363
15.0500,-0.001694,-0.010284,-0.998093,-0.003803,0.003970,-0.001234
15.0600,-0.001190,-0.009705,-0.999542,-0.003779,0.004504,-0.002049
15.0700,-0.002258,-0.010513,-0.999786,-0.001895,0.004478,-0.002098
15.0800,-0.002335,-0.009583,-0.999588,-0.002420,0.005185,-0.002528
15.0900,-0.001053,-0.009628,-1.000214,-0.003227,0.004588,-0.002474
15.1000,-0.002029,-0.009155,-0.999512,-0.002673,0.002992,-0.001284
15.1100,-0.002014,-0.009766,-0.999023,-0.005247,0.002888,-0.000869
15.1200,-0.001678,-0.011093,-0.999176,-0.001812,0.003868,-0.001524
15.1300,-0.001511,-0.010223,-0.999969,-0.002286,0.003114,0.000378
15.1400,-0.001953,-0.011017,-1.000122,-0.003277,0.003283,-0.002484
15.1500,-0.002670,-0.011505,-1.000244,-0.004206,0.003437,-0.002487
15.1600,-0.000671,-0.009979,-1.000305,-0.004408,0.004569,-0.004394
15.1700,-0.001511,-0.009659,-0.999603,-0.002375,0.003812,-0.002419
15.1800,-0.001587,-0.009705,-1.000168,-0.001623,0.004102,-0.002908
15.1900,-0.002274,-0.009460,-1.000259,-0.002751,0.003650,0.000271
15.2000,-0.002182,-0.008484,-0.999207,-0.002787,0.003338,-0.001055
15.2100,-0.001770,-0.009979,-0.999603,-0.003226,0.003506,-0.000692
15.2200,-0.002106,-0.009567,-1.000000,-0.002880,0.003766,-0.002540
15.2300,-0.001755,-0.009933,-0.999954,-0.002990,0.003618,-0.002041
15.2400,-0.001846,-0.009628,-0.999374,-0.003544,0.005205,-0.002172
15.2500,-0.002228,-0.009979,-0.999100,-0.003304,0.003093,-0.002289
15.2600,-0.001740,-0.010025,-0.999878,-0.003953,0.003493,-0.002624
15.2700,-0.001114,-0.008972,-0.999390,-0.003209,0.003854,-0.001880
15.2800,-0.001266,-0.009384,-1.000061,-0.002945,0.005141,-0.000587
15.2900,-0.002075,-0.010590,-0.998901,-0.003018,0.004294,-0.001670
15.3000,-0.002106,-0.008636,-1.000748,-0.003918,0.004219,-0.003589
15.3100,-0.003006,-0.010117,-0.999222,-0.002721,0.001124,-0.001120
15.3200,-0.001740,-0.009583,-0.999084,-0.003212,0.004732,-0.002215
15.3300,-0.002380,-0.010010,-1.000885,-0.003370,0.003725,-0.003192
15.3400,-0.002151,-0.010834,-1.000595,-0.001759,0.004567,-0.001321
15.3500,-0.001663,-0.009247,-0.999924,-0.004221,0.003855,0.000067
15.3600,-0.001328,-0.009949,-0.999252,-0.003395,0.003613,-0.003264
15.3700,-0.001450,-0.011002,-0.999847,-0.001477,0.003642,-0.001326
15.3800,-0.002686,-0.009430,-1.000427,-0.001999,0.003936,-0.002663
15.3900,-0.002197,-0.009201,-0.998413,-0.003021,0.003885,-0.001930
15.4000,-0.002625,-0.010849,-0.999786,-0.003071,0.003284,-0.000519
15.4100,-0.001572,-0.009521,-1.001205,-0.002380,0.004523,-0.001623
15.4200,-0.001724,-0.009506,-1.000687,-0.002653,0.003838,0.000517
15.4300,-0.001862,-0.009949,-1.000290,-0.002242,0.003901,-0.002710
15.4400,-0.001877,-0.010376,-0.999664,-0.002782,0.003948,-0.001650
15.4500,-0.002228,-0.010864,-0.999741,-0.002987,0.004880,-0.001191
15.4600,-0.002136,-0.010422,-0.998810,-0.003430,0.003679,-0.003380
15.4700,-0.001907,-0.010223,-0.999435,-0.002637,0.004456,-0.003289
15.4800,-0.001205,-0.010559,-1.000336,-0.002771,0.005810,-0.000346
15.4900,-0.001740,-0.010178,-0.998520,-0.001799,0.003381,-0.002705
15.5000,-0.001724,-0.009277,-0.999069,-0.001593,0.005383,-0.001641
15.5100,-0.001312,-0.010101,-0.999207,-0.002197,0.003939,-0.002707
15.5200,-0.002289,-0.009735,-1.000153,-0.001655,0.003574,-0.002391
15.5300,-0.001678,-0.009369,-0.999573,-0.003459,0.003044,0.000243
15.5400,-0.002060,-0.009155,-0.999756,-0.003702,0.004450,-0.001871
15.5500,-0.002472,-0.010254,-1.000671,-0.001653,0.004152,-0.000245
15.5600,-0.001923,-0.009232,-0.999588,-0.003237,0.003993,-0.002814
15.5700,-0.001907,-0.010071,-1.000854,-0.003362,0.004000,-0.001904
15.5800,-0.002563,-0.009369,-0.999603,-0.004329,0.002721,-0.001405
15.5900,-0.001892,-0.009277,-0.998383,-0.004089,0.002886,-0.000950
15.6000,-0.002228,-0.009933,-0.998917,-0.002241,0.003302,-0.002162
15.6100,-0.002029,-0.009766,-0.999542,-0.003418,0.003532,-0.002463
15.6200,-0.001160,-0.010742,-1.000275,-0.002317,0.004966,-0.001354
15.6300,-0.001678,-0.010315,-0.999039,-0.002655,0.003660,-0.000894
15.6400,-0.002670,-0.009491,-0.998688,-0.003521,0.002981,-0.002131
15.6500,-0.001526,-0.010727,-0.999008,-0.002318,0.002948,-0.002569
15.6600,-0.002213,-0.010269,-1.000198,-0.002765,0.002725,-0.002341
15.6700,-0.001602,-0.010208,-1.000046,-0.003586,0.005258,-0.000278
15.6800,-0.001465,-0.010620,-1.000015,-0.001448,0.004000,-0.001712
15.6900,-0.001511,-0.010468,-0.999191,-0.003982,0.002679,-0.002349
15.7000,-0.002716,-0.010300,-0.999374,-0.003079,0.002716,-0.001454
15.7100,-0.003326,-0.010422,-0.999908,-0.002440,0.003892,-0.001202
15.7200,-0.001389,-0.010361,-0.999771,-0.003453,0.004304,-0.001032
15.7300,-0.001984,-0.009567,-1.000229,-0.003194,0.004555,-0.002664
15.7400,-0.003174,-0.009430,-0.999878,-0.003367,0.003490,-0.001625
15.7500,-0.002563,-0.009888,-0.999329,-0.003037,0.003337,-0.000720
15.7600,-0.001450,-0.010178,-0.999054,-0.003124,0.003310,-0.000095
15.7700,-0.002304,-0.009598,-1.000046,-0.003016,0.003099,-0.001121
15.7800,-0.001740,-0.010468,-0.998505,-0.002619,0.004794,-0.000813
15.7900,-0.001846,-0.010178,-0.998672,-0.003620,0.003423,-0.002332
15.8000,-0.001587,-0.009598,-0.998993,-0.004038,0.004303,-0.002333
15.8100,-0.001785,-0.010941,-0.999802,-0.002527,0.003697,-0.002109
15.8200,-0.001617,-0.009354,-0.999466,-0.003347,0.003801,-0.002094
15.8300,-0.001785,-0.009033,-0.999664,-0.003535,0.003968,-0.001784
15.8400,-0.001633,-0.009659,-1.000336,-0.003898,0.003585,-0.002676
15.8500,-0.001404,-0.009796,-0.999023,-0.002178,0.003901,-0.002551
15.8600,-0.001740,-0.009644,-0.999054,-0.003030,0.003800,-0.001832
15.8700,-0.001740,-0.009583,-1.000061,-0.002736,0.003653,-0.002081
15.8800,-0.002365,-0.010406,-0.999542,-0.002797,0.003292,0.000222
15.8900,-0.001724,-0.009933,-1.000183,-0.002671,0.004663,-0.001861
15.9000,-0.002396,-0.009949,-1.000366,-0.003450,0.002877,-0.000568
15.9100,-0.002823,-0.010681,-0.998047,-0.003708,0.003452,-0.001847
15.9200,-0.002029,-0.010193,-0.998901,-0.003646,0.003710,-0.001135
15.9300,-0.001312,-0.010330,-0.999191,-0.001872,0.004776,-0.001614
15.9400,-0.001801,-0.009521,-0.999161,-0.002870,0.005230,-0.002247
15.9500,-0.002045,-0.010742,-1.001312,-0.004426,0.003679,-0.000144
15.9600,-0.003281,-0.010376,-1.000519,-0.003603,0.003316,-0.001872
15.9700,-0.002838,-0.010025,-0.999252,-0.003929,0.003362,-0.001956
15.9800,-0.001740,-0.010330,-0.999893,-0.003863,0.002821,-0.001859
15.9900,-0.000931,-0.009644,-0.999832,-0.003344,0.003732,-0.002208
16.0000,-0.001907,-0.011322,-1.000061,-0.003645,0.002560,-0.003803
16.0100,-0.001846,-0.010361,-0.998337,-0.003353,0.003162,-0.003050
16.0200,-0.002121,-0.011215,-1.000153,-0.003916,0.004030,-0.002931
16.0300,-0.002380,-0.011414,-0.998871,-0.003762,0.005620,-0.000833
16.0400,-0.001724,-0.008453,-1.000015,-0.001724,0.003499,-0.000676
16.0500,-0.001160,-0.009903,-0.999023,-0.002094,0.003745,0.000259
16.0600,-0.001450,-0.009415,-0.998810,-0.002882,0.003012,-0.001267
16.0700,-0.002411,-0.009491,-0.999954,-0.004170,0.004029,-0.002851
16.0800,-0.001450,-0.011002,-0.999313,-0.002765,0.003784,-0.002132
16.0900,-0.002548,-0.010376,-0.997955,-0.001574,0.003358,-0.000552
16.1000,-0.001419,-0.010132,-0.999420,-0.004363,0.004190,-0.002115
16.1100,-0.001450,-0.011658,-0.999405,-0.001861,0.004300,-0.001753
16.1200,-0.000946,-0.010788,-0.999893,-0.004510,0.003727,-0.001685
16.1300,-0.002991,-0.010513,-0.999741,-0.003611,0.002997,-0.003481
16.1400,-0.003235,-0.010483,-0.999588,-0.002039,0.002737,-0.002058
16.1500,-0.002426,-0.009781,-1.000061,-0.001748,0.004313,-0.000936
16.1600,-0.002045,-0.009933,-0.999100,-0.004360,0.004867,-0.001630
16.1700,-0.001755,-0.010330,-0.998962,-0.003615,0.003811,-0.000908
16.1800,-0.001801,-0.009979,-1.000046,-0.003363,0.003951,-0.002338
16.1900,-0.002396,-0.010712,-0.998413,-0.002707,0.003803,-0.001035
16.2000,-0.001190,-0.011185,-0.999481,-0.003222,0.003873,-0.001324
16.2100,-0.001846,-0.010117,-0.998657,-0.004892,0.002857,-0.001133
16.2200,-0.001816,-0.011734,-0.999878,-0.002779,0.004191,-0.001561
16.2300,-0.000885,-0.010300,-0.999832,-0.003637,0.002484,-0.001909
16.2400,-0.001709,-0.010544,-0.998657,-0.004369,0.003811,-0.000741
16.2500,-0.002090,-0.009796,-0.998398,-0.001690,0.004288,-0.001571
16.2600,-0.001266,-0.010010,-1.000336,-0.003992,0.003955,-0.000793
16.2700,-0.002289,-0.009354,-0.998795,-0.002485,0.004308,-0.001984
16.2800,-0.001328,-0.009613,-1.000381,-0.003186,0.003970,-0.001501
16.2900,-0.000443,-0.010315,-1.000336,-0.002124,0.003934,-0.001956
16.3000,-0.001328,-0.011124,-0.999237,-0.003238,0.005074,-0.000929
16.3100,-0.001480,-0.009552,-1.000000,-0.003333,0.005495,-0.000248
16.3200,-0.001938,-0.010376,-0.999084,-0.003752,0.003554,-0.001260
16.3300,-0.002686,-0.010315,-0.999741,-0.004050,0.003959,-0.002203
16.3400,-0.001328,-0.010071,-0.999115,-0.004396,0.003807,-0.001582
16.3500,-0.001846,-0.009811,-0.999649,-0.003693,0.004029,-0.001104
16.3600,-0.001785,-0.010880,-1.000183,-0.002989,0.003688,-0.002413
16.3700,-0.002060,-0.010147,-0.999100,-0.002638,0.004051,-0.002088
16.3800,-0.002655,-0.010284,-0.999741,-0.004287,0.003287,-0.000811
16.3900,-0.000519,-0.010925,-0.999817,-0.002298,0.005846,-0.000705
16.4000,-0.001678,-0.011566,-1.000244,-0.003144,0.004068,-0.003083
16.4100,-0.002014,-0.009521,-0.999939,-0.003515,0.003641,-0.002659
16.4200,-0.002365,-0.009827,-0.998108,-0.003289,0.003290,-0.001843
16.4300,-0.001724,-0.009277,-0.999146,-0.004532,0.003915,-0.002067
16.4400,-0.001984,-0.009048,-0.999390,-0.002490,0.003886,-0.001953
16.4500,-0.002609,-0.009964,-0.998901,-0.004006,0.002616,0.000048
16.4600,-0.002060,-0.008957,-1.000381,-0.005205,0.002662,-0.003611
16.4700,-0.002640,-0.009430,-0.999847,-0.001891,0.003466,-0.002028
16.4800,-0.000961,-0.010025,-0.999725,-0.003353,0.004910,-0.001771
16.4900,-0.001770,-0.010010,-0.998856,-0.003390,0.005144,-0.001185
16.5000,-0.001907,-0.010178,-1.000153,-0.003591,0.003088,-0.002299
16.5100,-0.001526,-0.011383,-1.000397,-0.002081,0.002435,-0.001173
16.5200,-0.001709,-0.011383,-0.999268,-0.004209,0.004785,-0.003368
16.5300,-0.002151,-0.010422,-0.999451,-0.002375,0.004671,-0.003810
16.5400,-0.001053,-0.010071,-0.998825,-0.003893,0.004704,-0.002930
16.5500,-0.001465,-0.010010,-0.999069,-0.003481,0.004387,-0.002987
16.5600,-0.001297,-0.009506,-0.999100,-0.002266,0.001555,-0.001530
16.5700,-0.001480,-0.010544,-0.999573,-0.001571,0.005581,-0.003129
16.5800,-0.001907,-0.010025,-1.001358,-0.002073,0.003861,-0.001947
16.5900,-0.002457,-0.010834,-0.998993,-0.002172,0.004020,-0.002230
16.6000,-0.003357,-0.008362,-0.997208,-0.004435,0.003502,0.000092
16.6100,-0.000717,-0.008667,-0.999298,-0.003763,0.003833,-0.000935
16.6200,-0.001984,-0.009506,-0.999512,-0.003537,0.002467,-0.000985
16.6300,-0.002380,-0.009842,-0.999557,-0.003118,0.004495,-0.001559
16.6400,-0.001053,-0.010590,-0.998764,-0.001502,0.004557,-0.001449
16.6500,-0.003128,-0.010513,-1.000320,-0.002506,0.004508,-0.002827
16.6600,-0.002945,-0.009460,-0.999893,-0.003331,0.003919,-0.000545
16.6700,-0.001724,-0.011002,-0.998306,-0.003370,0.003518,-0.001471
16.6800,-0.001846,-0.009521,-0.998154,-0.003830,0.003336,-0.001829
16.6900,-0.001038,-0.009476,-0.997894,-0.002295,0.004716,-0.001179
16.7000,-0.002655,-0.010742,-0.999954,-0.002355,0.004046,-0.000984
16.7100,-0.002136,-0.010620,-1.000137,-0.002327,0.003515,-0.002353
16.7200,-0.001801,-0.009888,-0.999435,-0.000725,0.002268,-0.001347
16.7300,-0.002335,-0.009445,-0.999939,-0.003458,0.003515,-0.003017
16.7400,-0.000931,-0.010803,-0.998688,-0.002866,0.003993,-0.003123
16.7500,-0.001984,-0.010498,-1.000748,-0.003504,0.003217,-0.000932
16.7600,-0.003021,-0.010620,-0.998535,-0.003651,0.003516,-0.000528
16.7700,-0.002487,-0.010056,-0.999573,-0.003927,0.004079,-0.002757
16.7800,-0.003143,-0.009613,-0.999908,-0.003021,0.003255,-0.001974
16.7900,-0.002213,-0.010727,-0.999466,-0.002027,0.004396,-0.003849
16.8000,-0.001663,-0.010315,-0.999573,-0.003318,0.003643,-0.003049
16.8100,-0.001999,-0.008881,-0.999115,-0.003127,0.006179,-0.001589
16.8200,-0.002090,-0.009430,-0.999542,-0.003623,0.003984,-0.002416
16.8300,-0.002594,-0.010284,-1.000916,-0.003919,0.003677,0.000050
16.8400,-0.002258,-0.009628,-0.998947,-0.002626,0.003369,-0.001142
16.8500,-0.001099,-0.010040,-0.998245,-0.001384,0.004831,-0.002453
16.8600,-0.001862,-0.009857,-0.999283,-0.003123,0.005017,0.000020
16.8700,-0.001953,-0.009903,-0.999084,-0.002828,0.002782,-0.003271
16.8800,-0.002045,-0.011017,-0.999634,-0.004368,0.003710,-0.001601
16.8900,-0.001892,-0.009598,-0.998657,-0.001772,0.003714,-0.002311
16.9000,-0.000488,-0.008667,-0.999619,-0.003514,0.004930,-0.002762
16.9100,-0.002151,-0.009537,-0.999924,-0.004613,0.003586,-0.001868
16.9200,-0.002319,-0.008987,-0.999237,-0.003268,0.002836,-0.001544
16.9300,-0.001007,-0.009598,-0.999969,-0.002679,0.003407,-0.000700
16.9400,-0.002090,-0.009476,-0.999542,-0.002783,0.003878,0.000007
16.9500,-0.002426,-0.010269,-0.999176,-0.002121,0.003733,-0.001580
16.9600,-0.001846,-0.009216,-0.999893,-0.003667,0.004634,-0.002853
16.9700,-0.002274,-0.009842,-0.999817,-0.003123,0.003539,0.000308
16.9800,-0.002426,-0.009308,-0.999847,-0.003259,0.005346,-0.002063
16.9900,-0.000931,-0.008698,-0.997772,-0.003756,0.002701,-0.002255
17.0000,-0.001480,-0.010025,-0.999466,-0.002553,0.003004,-0.003138
17.0100,-0.001801,-0.010300,-0.998917,-0.003533,0.003835,-0.000251
17.0200,-0.001740,-0.009872,-0.999405,-0.002953,0.004084,-0.001939
17.0300,-0.001663,-0.010895,-1.000168,-0.004501,0.003686,-0.002011
17.0400,-0.002365,-0.009827,-0.999222,-0.003112,0.003255,-0.001443
17.0500,-0.001694,-0.009750,-0.999176,-0.002760,0.004330,-0.002396
17.0600,-0.002502,-0.009720,-1.000397,-0.002088,0.002862,-0.000104
17.0700,-0.002075,-0.010101,-0.999588,-0.002941,0.004169,-0.001427
17.0800,-0.001160,-0.011032,-0.999878,-0.002578,0.004539,-0.003139
17.0900,-0.001587,-0.009903,-0.999908,-0.002526,0.002832,-0.001145
17.1000,-0.000793,-0.010696,-0.998993,-0.001453,0.003845,-0.001487
17.1100,-0.002121,-0.010651,-0.999054,-0.002942,0.004235,-0.002798
17.1200,-0.002487,-0.010269,-0.998001,-0.004022,0.004592,-0.000629
17.1300,-0.001923,-0.008850,-1.000519,-0.003805,0.004882,-0.001483
17.1400,-0.001663,-0.010025,-1.000977,-0.003606,0.002935,-0.001899
17.1500,-0.002380,-0.009567,-0.999237,-0.003516,0.002916,-0.001410
17.1600,-0.002945,-0.009811,-0.999222,-0.002819,0.003639,-0.001702
17.1700,-0.002274,-0.009720,-0.999786,-0.003913,0.003956,-0.001618
17.1800,-0.001389,-0.009201,-0.998749,-0.004140,0.002382,-0.001770
17.1900,-0.002487,-0.009216,-1.000076,-0.001835,0.004550,-0.002041
17.2000,-0.002762,-0.009705,-1.000244,-0.005184,0.003942,-0.001085
17.2100,-0.001892,-0.010284,-0.998596,-0.002267,0.003366,-0.002422
17.2200,-0.001144,-0.010254,-0.999268,-0.002356,0.002542,-0.001847
17.2300,-0.001328,-0.010223,-0.999680,-0.003072,0.003738,-0.000270
17.2400,-0.001923,-0.009613,-1.000305,-0.002610,0.004478,-0.002848
17.2500,-0.001724,-0.009674,-0.999969,-0.002228,0.004840,-0.001471
17.2600,-0.001572,-0.009567,-0.998459,-0.002027,0.004469,-0.003656
17.2700,-0.001587,-0.010788,-0.999924,-0.003859,0.005018,-0.001548
17.2800,-0.002136,-0.009705,-0.999390,-0.003669,0.003613,-0.001666
17.2900,-0.002441,-0.009430,-0.999680,-0.002446,0.003396,-0.002000
17.3000,-0.001404,-0.009445,-0.999985,-0.004311,0.003753,-0.001256
17.3100,-0.001709,-0.010681,-1.000351,-0.002401,0.003108,-0.000411
17.3200,-0.001831,-0.009842,-0.999420,-0.004397,0.003922,-0.001539
17.3300,-0.002136,-0.009857,-0.998230,-0.003915,0.003659,-0.000641
17.3400,-0.002350,-0.010498,-0.999008,-0.003097,0.002195,-0.003157
17.3500,-0.001419,-0.009796,-0.999115,-0.002240,0.004683,0.000254
17.3600,-0.001694,-0.010345,-1.000916,-0.003382,0.005054,0.000139
17.3700,-0.000397,-0.010040,-0.999115,-0.003190,0.005110,-0.000460
17.3800,-0.002533,-0.010162,-0.999069,-0.003943,0.003708,-0.000755
17.3900,-0.002258,-0.009262,-1.000122,-0.003758,0.002483,-0.001491
17.4000,-0.001480,-0.009506,-0.999847,-0.001181,0.002108,-0.003311
17.4100,-0.002090,-0.009628,-0.998276,-0.002821,0.003726,-0.002312
17.4200,-0.001846,-0.009933,-0.999542,-0.003381,0.003844,-0.001671
17.4300,-0.001587,-0.009155,-1.000854,-0.003686,0.003400,-0.001168
17.4400,-0.001648,-0.010513,-0.999786,-0.002559,0.003826,-0.001577
17.4500,-0.002365,-0.009186,-1.000839,-0.003627,0.003208,-0.001675
17.4600,-0.001633,-0.010803,-1.000046,-0.001600,0.003287,-0.003694
17.4700,-0.001968,-0.010635,-1.000320,-0.005099,0.003536,-0.001551
17.4800,-0.002869,-0.009430,-0.999557,-0.001836,0.004746,-0.001969
17.4900,-0.002441,-0.010681,-1.000259,-0.004063,0.004500,-0.001252
17.5000,-0.001846,-0.009720,-1.000534,-0.003046,0.003091,0.000638
17.5100,-0.002151,-0.010880,-1.000839,-0.004090,0.002323,-0.002846
17.5200,-0.002213,-0.010544,-0.998856,-0.003093,0.005079,-0.000472
17.5300,-0.001740,-0.009644,-1.000793,-0.002618,0.004486,-0.002549
17.5400,-0.001373,-0.010223,-0.998764,-0.002476,0.002859,-0.001626
17.5500,-0.002411,-0.010147,-0.999313,-0.002570,0.004638,0.000670
17.5600,-0.002197,-0.010376,-0.999161,-0.002666,0.003284,-0.001917
17.5700,-0.002075,-0.009933,-0.999176,-0.003646,0.004061,-0.000010
17.5800,-0.001358,-0.009338,-0.998566,-0.001946,0.004069,-0.001058
17.5900,-0.001968,-0.009628,-1.000351,-0.003195,0.003439,-0.002564
17.6000,-0.002243,-0.010101,-1.000931,-0.002152,0.004321,-0.001741
17.6100,-0.002243,-0.010468,-0.999176,-0.004109,0.002748,-0.000945
17.6200,-0.003250,-0.009720,-0.999496,-0.001916,0.003064,-0.002337
17.6300,-0.003204,-0.010162,-0.999893,-0.003722,0.002605,-0.001970
17.6400,-0.001892,-0.009995,-0.999481,-0.004107,0.003806,-0.002072
17.6500,-0.001450,-0.009964,-0.999207,-0.003716,0.003922,-0.000604
17.6600,-0.002182,-0.010193,-0.999756,-0.002295,0.002920,-0.001167
17.6700,-0.001343,-0.009995,-0.999130,-0.003279,0.003725,-0.002819
17.6800,-0.001801,-0.009857,-0.998779,-0.004653,0.002990,-0.003456
17.6900,-0.002487,-0.009415,-1.000351,-0.003841,0.002557,-0.001137
17.7000,-0.001358,-0.010147,-0.999817,-0.003982,0.004526,-0.002525
17.7100,-0.002625,-0.010605,-0.998779,-0.003913,0.003550,-0.000134
17.7200,-0.001572,-0.009811,-0.999619,-0.003447,0.003867,-0.001627
17.7300,-0.002060,-0.009735,-0.998901,-0.003662,0.004878,-0.000377
17.7400,-0.003174,-0.009323,-0.999420,-0.002850,0.004542,-0.001406
17.7500,-0.001144,-0.010117,-0.999405,-0.002410,0.004154,-0.002046
17.7600,-0.001984,-0.010376,-0.998672,-0.002242,0.003332,-0.002638
17.7700,-0.001297,-0.009384,-0.999939,-0.003848,0.003031,-0.000874
17.7800,-0.001724,-0.009628,-0.998764,-0.003293,0.003975,-0.000524
17.7900,-0.002136,-0.009689,-1.000137,-0.002912,0.004527,-0.002164
17.8000,-0.001389,-0.010727,-0.998444,-0.003501,0.005283,-0.001490
17.8100,-0.002701,-0.010834,-0.999481,-0.000867,0.003206,-0.001709
17.8200,-0.000931,-0.009964,-1.000473,-0.003798,0.004375,-0.001308
17.8300,-0.001160,-0.009674,-0.999023,-0.002811,0.002232,-0.001247
17.8400,-0.002090,-0.009384,-1.000122,-0.003586,0.003135,-0.002059
17.8500,-0.002396,-0.009537,-0.999298,-0.003431,0.004802,-0.003578
17.8600,-0.001968,-0.010452,-0.998932,-0.005155,0.003281,-0.002413
17.8700,-0.001007,-0.009872,-0.999527,-0.004106,0.002575,-0.001531
17.8800,-0.002747,-0.010086,-0.999268,-0.003036,0.003955,-0.000569
17.8900,-0.001205,-0.009415,-0.999435,-0.002813,0.001473,-0.002720
17.9000,-0.002563,-0.009659,-0.999466,-0.003317,0.004534,-0.001217
17.9100,-0.002151,-0.009933,-0.999451,-0.003200,0.002867,-0.001871
17.9200,-0.001709,-0.009781,-0.999985,-0.003532,0.004024,-0.000866
17.9300,-0.002625,-0.010269,-0.998718,-0.004235,0.003345,-0.001652
17.9400,-0.002090,-0.009933,-1.000305,-0.003049,0.004908,-0.002962
17.9500,-0.002533,-0.010330,-0.999908,-0.003253,0.002602,-0.003891
17.9600,-0.003311,-0.009964,-0.999313,-0.003421,0.003796,-0.002698
17.9700,-0.002090,-0.011169,-0.997757,-0.003446,0.003816,-0.001225
17.9800,-0.001465,-0.010773,-0.998154,-0.001410,0.004305,-0.001989
17.9900,-0.001541,-0.010010,-0.999481,-0.002833,0.003468,-0.002285
18.0000,-0.001923,-0.009750,-0.999725,-0.002664,0.003535,-0.001413
18.0100,-0.002670,-0.009552,-0.998672,-0.004295,0.005266,-0.002761
18.0200,-0.001221,-0.009323,-0.999603,-0.002832,0.004600,-0.001457
18.0300,-0.002029,-0.009720,-1.000122,-0.002842,0.003355,-0.001201
18.0400,-0.001328,-0.010376,-0.999603,-0.002864,0.002658,-0.001105
18.0500,-0.001923,-0.010529,-0.999603,-0.001602,0.002621,-0.001462
